[{
  "0": {
    "rt": 28353,
    "responses": "{\"Q0\":\"1\"}",
    "trial_type": "survey-text",
    "trial_index": 0,
    "time_elapsed": 28359,
    "internal_node_id": "0.0-0.0"
  },
  "1": {
    "view_history": "[{\"page_index\":0,\"viewing_time\":14065},{\"page_index\":1,\"viewing_time\":50462}]",
    "rt": 64527,
    "index_shuffled": [
      15,
      8,
      13,
      11,
      3,
      14,
      5,
      10,
      12,
      7,
      1,
      19,
      17,
      4,
      0,
      6,
      2,
      16,
      18,
      9
    ],
    "trial_type": "instructions",
    "trial_index": 1,
    "time_elapsed": 93891,
    "internal_node_id": "0.0-1.0"
  },
  "2": {
    "rt": -1,
    "stimulus": "<center> What is the only country in the world where women dominate the government?</center>",
    "key_press": -1,
    "trial_type": "single-stim",
    "trial_index": 2,
    "time_elapsed": 100914,
    "internal_node_id": "0.0-2.0-0.0"
  },
  "3": {
    "rt": 13899,
    "responses": "{\"Q0\":\"4\",\"Q1\":\"1\"}",
    "trial_type": "survey-likert",
    "trial_index": 3,
    "time_elapsed": 115820,
    "internal_node_id": "0.0-2.0-1.0"
  },
  "4": {
    "rt": -1,
    "stimulus": "<center> What snack food is an ingredient in the explosive dynamite?</center>",
    "key_press": -1,
    "trial_type": "single-stim",
    "trial_index": 4,
    "time_elapsed": 122838,
    "internal_node_id": "0.0-2.1-0.1"
  },
  "5": {
    "rt": 7796,
    "responses": "{\"Q0\":\"4\",\"Q1\":\"1\"}",
    "trial_type": "survey-likert",
    "trial_index": 5,
    "time_elapsed": 131643,
    "internal_node_id": "0.0-2.1-1.1"
  },
  "6": {
    "rt": -1,
    "stimulus": "<center> What animal can shed up to 30,000 teeth in its lifetime?</center>",
    "key_press": -1,
    "trial_type": "single-stim",
    "trial_index": 6,
    "time_elapsed": 138656,
    "internal_node_id": "0.0-2.2-0.2"
  },
  "7": {
    "rt": 9197,
    "responses": "{\"Q0\":\"1\",\"Q1\":\"0\"}",
    "trial_type": "survey-likert",
    "trial_index": 7,
    "time_elapsed": 148868,
    "internal_node_id": "0.0-2.2-1.2"
  },
  "8": {
    "rt": -1,
    "stimulus": "<center> What invention should make Ts'ai Lun, a 2nd century inventor, a household name?</center>",
    "key_press": -1,
    "trial_type": "single-stim",
    "trial_index": 8,
    "time_elapsed": 155896,
    "internal_node_id": "0.0-2.3-0.3"
  },
  "9": {
    "rt": 11525,
    "responses": "{\"Q0\":\"3\",\"Q1\":\"9\"}",
    "trial_type": "survey-likert",
    "trial_index": 9,
    "time_elapsed": 168435,
    "internal_node_id": "0.0-2.3-1.3"
  },
  "10": {
    "rt": -1,
    "stimulus": "<center> What book is the most shoplifted book in the world?</center>",
    "key_press": -1,
    "trial_type": "single-stim",
    "trial_index": 10,
    "time_elapsed": 175450,
    "internal_node_id": "0.0-2.4-0.4"
  },
  "11": {
    "rt": 5456,
    "responses": "{\"Q0\":\"3\",\"Q1\":\"1\"}",
    "trial_type": "survey-likert",
    "trial_index": 11,
    "time_elapsed": 181925,
    "internal_node_id": "0.0-2.4-1.4"
  },
  "12": {
    "rt": -1,
    "stimulus": "<center> Who was the first host of the comedy show Saturday Night Live?</center>",
    "key_press": -1,
    "trial_type": "single-stim",
    "trial_index": 12,
    "time_elapsed": 188933,
    "internal_node_id": "0.0-2.5-0.5"
  },
  "13": {
    "rt": 7842,
    "responses": "{\"Q0\":\"1\",\"Q1\":\"0\"}",
    "trial_type": "survey-likert",
    "trial_index": 13,
    "time_elapsed": 197780,
    "internal_node_id": "0.0-2.5-1.5"
  },
  "14": {
    "rt": -1,
    "stimulus": "<center> How long were Jerry Seinfeld and his pals sentenced in the series finale?</center>",
    "key_press": -1,
    "trial_type": "single-stim",
    "trial_index": 14,
    "time_elapsed": 204797,
    "internal_node_id": "0.0-2.6-0.6"
  },
  "15": {
    "rt": 3380,
    "responses": "{\"Q0\":\"0\",\"Q1\":\"0\"}",
    "trial_type": "survey-likert",
    "trial_index": 15,
    "time_elapsed": 209187,
    "internal_node_id": "0.0-2.6-1.6"
  },
  "16": {
    "rt": -1,
    "stimulus": "<center> What city is referred to as 'Pittsburgh of the South'?</center>",
    "key_press": -1,
    "trial_type": "single-stim",
    "trial_index": 16,
    "time_elapsed": 216194,
    "internal_node_id": "0.0-2.7-0.7"
  },
  "17": {
    "rt": 3357,
    "responses": "{\"Q0\":\"1\",\"Q1\":\"0\"}",
    "trial_type": "survey-likert",
    "trial_index": 17,
    "time_elapsed": 220555,
    "internal_node_id": "0.0-2.7-1.7"
  },
  "18": {
    "rt": -1,
    "stimulus": "<center> What breed of dog is the only animal whose evidence is admissible in American courts?</center>",
    "key_press": -1,
    "trial_type": "single-stim",
    "trial_index": 18,
    "time_elapsed": 227571,
    "internal_node_id": "0.0-2.8-0.8"
  },
  "19": {
    "rt": 6203,
    "responses": "{\"Q0\":\"1\",\"Q1\":\"0\"}",
    "trial_type": "survey-likert",
    "trial_index": 19,
    "time_elapsed": 234781,
    "internal_node_id": "0.0-2.8-1.8"
  },
  "20": {
    "rt": -1,
    "stimulus": "<center> Which school has the most students over age 25 according to US News?</center>",
    "key_press": -1,
    "trial_type": "single-stim",
    "trial_index": 20,
    "time_elapsed": 241786,
    "internal_node_id": "0.0-2.9-0.9"
  },
  "21": {
    "rt": 7423,
    "responses": "{\"Q0\":\"2\",\"Q1\":\"0\"}",
    "trial_type": "survey-likert",
    "trial_index": 21,
    "time_elapsed": 250227,
    "internal_node_id": "0.0-2.9-1.9"
  },
  "22": {
    "rt": -1,
    "stimulus": "<center> What unfortunate handicap did Thomas Edison suffer from?</center>",
    "key_press": -1,
    "trial_type": "single-stim",
    "trial_index": 22,
    "time_elapsed": 257249,
    "internal_node_id": "0.0-2.10-0.10"
  },
  "23": {
    "rt": 10427,
    "responses": "{\"Q0\":\"2\",\"Q1\":\"1\"}",
    "trial_type": "survey-likert",
    "trial_index": 23,
    "time_elapsed": 268694,
    "internal_node_id": "0.0-2.10-1.10"
  },
  "24": {
    "rt": -1,
    "stimulus": "<center> What animal's excrements are consumed as luxury food?</center>",
    "key_press": -1,
    "trial_type": "single-stim",
    "trial_index": 24,
    "time_elapsed": 275702,
    "internal_node_id": "0.0-2.11-0.11"
  },
  "25": {
    "rt": 3215,
    "responses": "{\"Q0\":\"2\",\"Q1\":\"5\"}",
    "trial_type": "survey-likert",
    "trial_index": 25,
    "time_elapsed": 279931,
    "internal_node_id": "0.0-2.11-1.11"
  },
  "26": {
    "rt": -1,
    "stimulus": "<center> What instrument was invented to sound like a human singing?</center>",
    "key_press": -1,
    "trial_type": "single-stim",
    "trial_index": 26,
    "time_elapsed": 286946,
    "internal_node_id": "0.0-2.12-0.12"
  },
  "27": {
    "rt": 4818,
    "responses": "{\"Q0\":\"4\",\"Q1\":\"3\"}",
    "trial_type": "survey-likert",
    "trial_index": 27,
    "time_elapsed": 292771,
    "internal_node_id": "0.0-2.12-1.12"
  },
  "28": {
    "rt": -1,
    "stimulus": "<center> What is the museum-surrounded space in Washington DC called?</center>",
    "key_press": -1,
    "trial_type": "single-stim",
    "trial_index": 28,
    "time_elapsed": 299789,
    "internal_node_id": "0.0-2.13-0.13"
  },
  "29": {
    "rt": 12215,
    "responses": "{\"Q0\":\"1\",\"Q1\":\"0\"}",
    "trial_type": "survey-likert",
    "trial_index": 29,
    "time_elapsed": 313010,
    "internal_node_id": "0.0-2.13-1.13"
  },
  "30": {
    "rt": -1,
    "stimulus": "<center> What rock and roll band performs -I want to Rock and Roll All Night?</center>",
    "key_press": -1,
    "trial_type": "single-stim",
    "trial_index": 30,
    "time_elapsed": 320026,
    "internal_node_id": "0.0-2.14-0.14"
  },
  "31": {
    "rt": 8330,
    "responses": "{\"Q0\":\"2\",\"Q1\":\"0\"}",
    "trial_type": "survey-likert",
    "trial_index": 31,
    "time_elapsed": 329375,
    "internal_node_id": "0.0-2.14-1.14"
  },
  "32": {
    "rt": -1,
    "stimulus": "<center> What is the only type of animal besides a human that can get a sunburn?</center>",
    "key_press": -1,
    "trial_type": "single-stim",
    "trial_index": 32,
    "time_elapsed": 336380,
    "internal_node_id": "0.0-2.15-0.15"
  },
  "33": {
    "rt": 11208,
    "responses": "{\"Q0\":\"2\",\"Q1\":\"1\"}",
    "trial_type": "survey-likert",
    "trial_index": 33,
    "time_elapsed": 348595,
    "internal_node_id": "0.0-2.15-1.15"
  },
  "34": {
    "rt": -1,
    "stimulus": "<center> What city was Groundhog Day, starring Bill Murray, filmed in?</center>",
    "key_press": -1,
    "trial_type": "single-stim",
    "trial_index": 34,
    "time_elapsed": 355601,
    "internal_node_id": "0.0-2.16-0.16"
  },
  "35": {
    "rt": 4367,
    "responses": "{\"Q0\":\"0\",\"Q1\":\"0\"}",
    "trial_type": "survey-likert",
    "trial_index": 35,
    "time_elapsed": 360979,
    "internal_node_id": "0.0-2.16-1.16"
  },
  "36": {
    "rt": -1,
    "stimulus": "<center> What type of political campaign is characterized by many stops in small towns?</center>",
    "key_press": -1,
    "trial_type": "single-stim",
    "trial_index": 36,
    "time_elapsed": 367994,
    "internal_node_id": "0.0-2.17-0.17"
  },
  "37": {
    "rt": 3061,
    "responses": "{\"Q0\":\"2\",\"Q1\":\"0\"}",
    "trial_type": "survey-likert",
    "trial_index": 37,
    "time_elapsed": 372059,
    "internal_node_id": "0.0-2.17-1.17"
  },
  "38": {
    "rt": -1,
    "stimulus": "<center> From what city in the United States did Coca-Cola originate?</center>",
    "key_press": -1,
    "trial_type": "single-stim",
    "trial_index": 38,
    "time_elapsed": 379072,
    "internal_node_id": "0.0-2.18-0.18"
  },
  "39": {
    "rt": 4715,
    "responses": "{\"Q0\":\"2\",\"Q1\":\"8\"}",
    "trial_type": "survey-likert",
    "trial_index": 39,
    "time_elapsed": 384790,
    "internal_node_id": "0.0-2.18-1.18"
  },
  "40": {
    "rt": -1,
    "stimulus": "<center> What is the most sober school according to The Princeton Review?</center>",
    "key_press": -1,
    "trial_type": "single-stim",
    "trial_index": 40,
    "time_elapsed": 391812,
    "internal_node_id": "0.0-2.19-0.19"
  },
  "41": {
    "rt": 5562,
    "responses": "{\"Q0\":\"4\",\"Q1\":\"1\"}",
    "trial_type": "survey-likert",
    "trial_index": 41,
    "time_elapsed": 398386,
    "internal_node_id": "0.0-2.19-1.19"
  },
  "42": {
    "view_history": "[{\"page_index\":0,\"viewing_time\":96132},{\"page_index\":1,\"viewing_time\":33476}]",
    "rt": 129608,
    "trial_type": "instructions",
    "trial_index": 42,
    "time_elapsed": 529005,
    "internal_node_id": "0.0-3.0-0.0"
  },
  "43": {
    "rt": 52758,
    "responses": "{\"Q0\":[\"Questions in the bonus round will appear based on your CURIOSITY ratings\"]}",
    "checked": "[2]",
    "checked1": "2",
    "trial_type": "survey-multi-choice",
    "trial_index": 43,
    "time_elapsed": 582779,
    "internal_node_id": "0.0-3.0-1.0"
  },
  "44": {
    "view_history": "[{\"page_index\":0,\"viewing_time\":35067},{\"page_index\":1,\"viewing_time\":961}]",
    "rt": 36028,
    "trial_type": "instructions",
    "trial_index": 44,
    "time_elapsed": 622595,
    "internal_node_id": "0.0-3.1-0.1"
  },
  "45": {
    "rt": 13037,
    "responses": "{\"Q0\":[\"Questions in the bonus round will appear based on your CORRECTNESS ratings\"]}",
    "checked": "[3]",
    "checked1": "3",
    "trial_type": "survey-multi-choice",
    "trial_index": 45,
    "time_elapsed": 636636,
    "internal_node_id": "0.0-3.1-1.1"
  },
  "46": {
    "rt": 4069,
    "stimulus": "<center> What is the only country in the world where women dominate the government?</center>",
    "key_press": 65,
    "trial_type": "single-stim",
    "trial_index": 46,
    "time_elapsed": 642649,
    "internal_node_id": "0.0-4.0-0.0"
  },
  "47": {
    "rt": -1,
    "stimulus": "<center> Answer is </center>",
    "key_press": -1,
    "trial_type": "single-stim",
    "trial_index": 47,
    "time_elapsed": 653656,
    "internal_node_id": "0.0-4.0-1.0-0.0"
  },
  "48": {
    "rt": 2756,
    "stimulus": "<center> What snack food is an ingredient in the explosive dynamite?</center>",
    "key_press": 65,
    "trial_type": "single-stim",
    "trial_index": 48,
    "time_elapsed": 659670,
    "internal_node_id": "0.0-4.1-0.1"
  },
  "49": {
    "rt": 9682,
    "stimulus": "<center> Answer is </center>",
    "key_press": 65,
    "trial_type": "single-stim",
    "trial_index": 49,
    "time_elapsed": 670688,
    "internal_node_id": "0.0-4.1-1.1-0.1"
  },
  "50": {
    "rt": -1,
    "stimulus": "<center> What animal can shed up to 30,000 teeth in its lifetime?</center>",
    "key_press": -1,
    "trial_type": "single-stim",
    "trial_index": 50,
    "time_elapsed": 676711,
    "internal_node_id": "0.0-4.2-0.2"
  },
  "51": {
    "rt": 2648,
    "stimulus": "<center> What invention should make Ts'ai Lun, a 2nd century inventor, a household name?</center>",
    "key_press": 65,
    "trial_type": "single-stim",
    "trial_index": 51,
    "time_elapsed": 682717,
    "internal_node_id": "0.0-4.3-0.3"
  },
  "52": {
    "rt": 2128,
    "stimulus": "<center> Answer is </center>",
    "key_press": 65,
    "trial_type": "single-stim",
    "trial_index": 52,
    "time_elapsed": 693726,
    "internal_node_id": "0.0-4.3-1.3-0.3"
  },
  "53": {
    "rt": 2335,
    "stimulus": "<center> What book is the most shoplifted book in the world?</center>",
    "key_press": 65,
    "trial_type": "single-stim",
    "trial_index": 53,
    "time_elapsed": 699744,
    "internal_node_id": "0.0-4.4-0.4"
  },
  "54": {
    "rt": -1,
    "stimulus": "<center> Answer is </center>",
    "key_press": -1,
    "trial_type": "single-stim",
    "trial_index": 54,
    "time_elapsed": 710757,
    "internal_node_id": "0.0-4.4-1.4-0.4"
  },
  "55": {
    "rt": -1,
    "stimulus": "<center> Who was the first host of the comedy show Saturday Night Live?</center>",
    "key_press": -1,
    "trial_type": "single-stim",
    "trial_index": 55,
    "time_elapsed": 716774,
    "internal_node_id": "0.0-4.5-0.5"
  },
  "56": {
    "rt": -1,
    "stimulus": "<center> How long were Jerry Seinfeld and his pals sentenced in the series finale?</center>",
    "key_press": -1,
    "trial_type": "single-stim",
    "trial_index": 56,
    "time_elapsed": 722805,
    "internal_node_id": "0.0-4.6-0.6"
  },
  "57": {
    "rt": -1,
    "stimulus": "<center> What city is referred to as 'Pittsburgh of the South'?</center>",
    "key_press": -1,
    "trial_type": "single-stim",
    "trial_index": 57,
    "time_elapsed": 728819,
    "internal_node_id": "0.0-4.7-0.7"
  },
  "58": {
    "rt": 2280,
    "stimulus": "<center> What breed of dog is the only animal whose evidence is admissible in American courts?</center>",
    "key_press": 65,
    "trial_type": "single-stim",
    "trial_index": 58,
    "time_elapsed": 734845,
    "internal_node_id": "0.0-4.8-0.8"
  },
  "59": {
    "rt": -1,
    "stimulus": "<center> Answer is </center>",
    "key_press": -1,
    "trial_type": "single-stim",
    "trial_index": 59,
    "time_elapsed": 745853,
    "internal_node_id": "0.0-4.8-1.8-0.8"
  },
  "60": {
    "rt": 1854,
    "stimulus": "<center> Which school has the most students over age 25 according to US News?</center>",
    "key_press": 65,
    "trial_type": "single-stim",
    "trial_index": 60,
    "time_elapsed": 751881,
    "internal_node_id": "0.0-4.9-0.9"
  },
  "61": {
    "rt": -1,
    "stimulus": "<center> Answer is </center>",
    "key_press": -1,
    "trial_type": "single-stim",
    "trial_index": 61,
    "time_elapsed": 762902,
    "internal_node_id": "0.0-4.9-1.9-0.9"
  },
  "62": {
    "rt": 4096,
    "stimulus": "<center> What unfortunate handicap did Thomas Edison suffer from?</center>",
    "key_press": 65,
    "trial_type": "single-stim",
    "trial_index": 62,
    "time_elapsed": 768926,
    "internal_node_id": "0.0-4.10-0.10"
  },
  "63": {
    "rt": -1,
    "stimulus": "<center> Answer is </center>",
    "key_press": -1,
    "trial_type": "single-stim",
    "trial_index": 63,
    "time_elapsed": 779944,
    "internal_node_id": "0.0-4.10-1.10-0.10"
  },
  "64": {
    "rt": 4612,
    "stimulus": "<center> What animal's excrements are consumed as luxury food?</center>",
    "key_press": 65,
    "trial_type": "single-stim",
    "trial_index": 64,
    "time_elapsed": 785964,
    "internal_node_id": "0.0-4.11-0.11"
  },
  "65": {
    "rt": 9837,
    "stimulus": "<center> Answer is </center>",
    "key_press": 65,
    "trial_type": "single-stim",
    "trial_index": 65,
    "time_elapsed": 796972,
    "internal_node_id": "0.0-4.11-1.11-0.11"
  },
  "66": {
    "rt": 3116,
    "stimulus": "<center> What instrument was invented to sound like a human singing?</center>",
    "key_press": 65,
    "trial_type": "single-stim",
    "trial_index": 66,
    "time_elapsed": 802983,
    "internal_node_id": "0.0-4.12-0.12"
  },
  "67": {
    "rt": -1,
    "stimulus": "<center> Answer is </center>",
    "key_press": -1,
    "trial_type": "single-stim",
    "trial_index": 67,
    "time_elapsed": 814007,
    "internal_node_id": "0.0-4.12-1.12-0.12"
  },
  "68": {
    "rt": -1,
    "stimulus": "<center> What is the museum-surrounded space in Washington DC called?</center>",
    "key_press": -1,
    "trial_type": "single-stim",
    "trial_index": 68,
    "time_elapsed": 820018,
    "internal_node_id": "0.0-4.13-0.13"
  },
  "69": {
    "rt": -1,
    "stimulus": "<center> What rock and roll band performs -I want to Rock and Roll All Night?</center>",
    "key_press": -1,
    "trial_type": "single-stim",
    "trial_index": 69,
    "time_elapsed": 826038,
    "internal_node_id": "0.0-4.14-0.14"
  },
  "70": {
    "rt": 2992,
    "stimulus": "<center> What is the only type of animal besides a human that can get a sunburn?</center>",
    "key_press": 65,
    "trial_type": "single-stim",
    "trial_index": 70,
    "time_elapsed": 832044,
    "internal_node_id": "0.0-4.15-0.15"
  },
  "71": {
    "rt": 9171,
    "stimulus": "<center> Answer is </center>",
    "key_press": 32,
    "trial_type": "single-stim",
    "trial_index": 71,
    "time_elapsed": 843067,
    "internal_node_id": "0.0-4.15-1.15-0.15"
  },
  "72": {
    "rt": -1,
    "stimulus": "<center> What city was Groundhog Day, starring Bill Murray, filmed in?</center>",
    "key_press": -1,
    "trial_type": "single-stim",
    "trial_index": 72,
    "time_elapsed": 849085,
    "internal_node_id": "0.0-4.16-0.16"
  },
  "73": {
    "rt": -1,
    "stimulus": "<center> What type of political campaign is characterized by many stops in small towns?</center>",
    "key_press": -1,
    "trial_type": "single-stim",
    "trial_index": 73,
    "time_elapsed": 855111,
    "internal_node_id": "0.0-4.17-0.17"
  },
  "74": {
    "rt": -1,
    "stimulus": "<center> From what city in the United States did Coca-Cola originate?</center>",
    "key_press": -1,
    "trial_type": "single-stim",
    "trial_index": 74,
    "time_elapsed": 861129,
    "internal_node_id": "0.0-4.18-0.18"
  },
  "75": {
    "rt": 921,
    "stimulus": "<center> What is the most sober school according to The Princeton Review?</center>",
    "key_press": 65,
    "trial_type": "single-stim",
    "trial_index": 75,
    "time_elapsed": 867143,
    "internal_node_id": "0.0-4.19-0.19"
  },
  "76": {
    "rt": -1,
    "stimulus": "<center> Answer is </center>",
    "key_press": -1,
    "trial_type": "single-stim",
    "trial_index": 76,
    "time_elapsed": 878166,
    "internal_node_id": "0.0-4.19-1.19-0.19"
  },
  "77": {
    "view_history": "[{\"page_index\":0,\"viewing_time\":112156}]",
    "rt": 112157,
    "trial_type": "instructions",
    "trial_index": 77,
    "time_elapsed": 991324,
    "internal_node_id": "0.0-5.0"
  },
  "78": {
    "rt": 48720,
    "responses": "{\"Q0\":\"\",\"Q1\":\"Belgium\",\"Q2\":\"Paper\",\"Q3\":\"Violin\",\"Q4\":\"The Bible\",\"Q5\":\"\",\"Q6\":\"Pig\",\"Q7\":\"Brigham Young\",\"Q8\":\"deafness\",\"Q9\":\"\"}",
    "trial_type": "survey-text-2",
    "trial_index": 78,
    "time_elapsed": 1041062,
    "internal_node_id": "0.0-6.0",
    "date": "Wed, 01 Dec 2021 04:05:28 GMT",
    "completed": true,
    "condition": 1
  },
  "_id": {
    "$oid": "61a6f48ded7c4ba9d12dcfcb"
  },
  "filename": "curiosity1638331528594.json",
  "__v": 0
},{
  "0": {
    "rt": 341779,
    "responses": "{\"Q0\":\"2\"}",
    "trial_type": "survey-text",
    "trial_index": 0,
    "time_elapsed": 341782,
    "internal_node_id": "0.0-0.0"
  },
  "1": {
    "view_history": "[{\"page_index\":0,\"viewing_time\":25983},{\"page_index\":1,\"viewing_time\":29127}]",
    "rt": 55110,
    "index_shuffled": [
      7,
      10,
      5,
      17,
      11,
      6,
      16,
      13,
      0,
      3,
      19,
      2,
      12,
      8,
      15,
      18,
      4,
      9,
      1,
      14
    ],
    "trial_type": "instructions",
    "trial_index": 1,
    "time_elapsed": 397907,
    "internal_node_id": "0.0-1.0"
  },
  "2": {
    "rt": -1,
    "stimulus": "<center> Which school has the most students over age 25 according to US News?</center>",
    "key_press": -1,
    "trial_type": "single-stim",
    "trial_index": 2,
    "time_elapsed": 404910,
    "internal_node_id": "0.0-2.0-0.0"
  },
  "3": {
    "rt": 20348,
    "responses": "{\"Q0\":\"3\",\"Q1\":\"0\"}",
    "trial_type": "survey-likert",
    "trial_index": 3,
    "time_elapsed": 426260,
    "internal_node_id": "0.0-2.0-1.0"
  },
  "4": {
    "rt": -1,
    "stimulus": "<center> What city is referred to as 'Pittsburgh of the South'?</center>",
    "key_press": -1,
    "trial_type": "single-stim",
    "trial_index": 4,
    "time_elapsed": 433263,
    "internal_node_id": "0.0-2.1-0.1"
  },
  "5": {
    "rt": 9206,
    "responses": "{\"Q0\":\"3\",\"Q1\":\"1\"}",
    "trial_type": "survey-likert",
    "trial_index": 5,
    "time_elapsed": 443472,
    "internal_node_id": "0.0-2.1-1.1"
  },
  "6": {
    "rt": -1,
    "stimulus": "<center> How long were Jerry Seinfeld and his pals sentenced in the series finale?</center>",
    "key_press": -1,
    "trial_type": "single-stim",
    "trial_index": 6,
    "time_elapsed": 450474,
    "internal_node_id": "0.0-2.2-0.2"
  },
  "7": {
    "rt": 3912,
    "responses": "{\"Q0\":\"0\",\"Q1\":\"0\"}",
    "trial_type": "survey-likert",
    "trial_index": 7,
    "time_elapsed": 455389,
    "internal_node_id": "0.0-2.2-1.2"
  },
  "8": {
    "rt": -1,
    "stimulus": "<center> What instrument was invented to sound like a human singing?</center>",
    "key_press": -1,
    "trial_type": "single-stim",
    "trial_index": 8,
    "time_elapsed": 462391,
    "internal_node_id": "0.0-2.3-0.3"
  },
  "9": {
    "rt": 4953,
    "responses": "{\"Q0\":\"5\",\"Q1\":\"1\"}",
    "trial_type": "survey-likert",
    "trial_index": 9,
    "time_elapsed": 468347,
    "internal_node_id": "0.0-2.3-1.3"
  },
  "10": {
    "rt": -1,
    "stimulus": "<center> What invention should make Ts'ai Lun, a 2nd century inventor, a household name?</center>",
    "key_press": -1,
    "trial_type": "single-stim",
    "trial_index": 10,
    "time_elapsed": 475349,
    "internal_node_id": "0.0-2.4-0.4"
  },
  "11": {
    "rt": 8167,
    "responses": "{\"Q0\":\"5\",\"Q1\":\"10\"}",
    "trial_type": "survey-likert",
    "trial_index": 11,
    "time_elapsed": 484519,
    "internal_node_id": "0.0-2.4-1.4"
  },
  "12": {
    "rt": -1,
    "stimulus": "<center> What is the only type of animal besides a human that can get a sunburn?</center>",
    "key_press": -1,
    "trial_type": "single-stim",
    "trial_index": 12,
    "time_elapsed": 491522,
    "internal_node_id": "0.0-2.5-0.5"
  },
  "13": {
    "rt": 8388,
    "responses": "{\"Q0\":\"4\",\"Q1\":\"5\"}",
    "trial_type": "survey-likert",
    "trial_index": 13,
    "time_elapsed": 500913,
    "internal_node_id": "0.0-2.5-1.5"
  },
  "14": {
    "rt": -1,
    "stimulus": "<center> What type of political campaign is characterized by many stops in small towns?</center>",
    "key_press": -1,
    "trial_type": "single-stim",
    "trial_index": 14,
    "time_elapsed": 507916,
    "internal_node_id": "0.0-2.6-0.6"
  },
  "15": {
    "rt": 3354,
    "responses": "{\"Q0\":\"3\",\"Q1\":\"1\"}",
    "trial_type": "survey-likert",
    "trial_index": 15,
    "time_elapsed": 512271,
    "internal_node_id": "0.0-2.6-1.6"
  },
  "16": {
    "rt": -1,
    "stimulus": "<center> What animal can shed up to 30,000 teeth in its lifetime?</center>",
    "key_press": -1,
    "trial_type": "single-stim",
    "trial_index": 16,
    "time_elapsed": 519273,
    "internal_node_id": "0.0-2.7-0.7"
  },
  "17": {
    "rt": 3199,
    "responses": "{\"Q0\":\"4\",\"Q1\":\"1\"}",
    "trial_type": "survey-likert",
    "trial_index": 17,
    "time_elapsed": 523475,
    "internal_node_id": "0.0-2.7-1.7"
  },
  "18": {
    "rt": -1,
    "stimulus": "<center> What rock and roll band performs -I want to Rock and Roll All Night?</center>",
    "key_press": -1,
    "trial_type": "single-stim",
    "trial_index": 18,
    "time_elapsed": 530476,
    "internal_node_id": "0.0-2.8-0.8"
  },
  "19": {
    "rt": 3695,
    "responses": "{\"Q0\":\"1\",\"Q1\":\"1\"}",
    "trial_type": "survey-likert",
    "trial_index": 19,
    "time_elapsed": 535173,
    "internal_node_id": "0.0-2.8-1.8"
  },
  "20": {
    "rt": -1,
    "stimulus": "<center> What book is the most shoplifted book in the world?</center>",
    "key_press": -1,
    "trial_type": "single-stim",
    "trial_index": 20,
    "time_elapsed": 542175,
    "internal_node_id": "0.0-2.9-0.9"
  },
  "21": {
    "rt": 3698,
    "responses": "{\"Q0\":\"6\",\"Q1\":\"1\"}",
    "trial_type": "survey-likert",
    "trial_index": 21,
    "time_elapsed": 546877,
    "internal_node_id": "0.0-2.9-1.9"
  },
  "22": {
    "rt": -1,
    "stimulus": "<center> What animal's excrements are consumed as luxury food?</center>",
    "key_press": -1,
    "trial_type": "single-stim",
    "trial_index": 22,
    "time_elapsed": 553879,
    "internal_node_id": "0.0-2.10-0.10"
  },
  "23": {
    "rt": 3724,
    "responses": "{\"Q0\":\"5\",\"Q1\":\"1\"}",
    "trial_type": "survey-likert",
    "trial_index": 23,
    "time_elapsed": 558605,
    "internal_node_id": "0.0-2.10-1.10"
  },
  "24": {
    "rt": -1,
    "stimulus": "<center> What city was Groundhog Day, starring Bill Murray, filmed in?</center>",
    "key_press": -1,
    "trial_type": "single-stim",
    "trial_index": 24,
    "time_elapsed": 565607,
    "internal_node_id": "0.0-2.11-0.11"
  },
  "25": {
    "rt": 3268,
    "responses": "{\"Q0\":\"1\",\"Q1\":\"0\"}",
    "trial_type": "survey-likert",
    "trial_index": 25,
    "time_elapsed": 569879,
    "internal_node_id": "0.0-2.11-1.11"
  },
  "26": {
    "rt": -1,
    "stimulus": "<center> What breed of dog is the only animal whose evidence is admissible in American courts?</center>",
    "key_press": -1,
    "trial_type": "single-stim",
    "trial_index": 26,
    "time_elapsed": 576880,
    "internal_node_id": "0.0-2.12-0.12"
  },
  "27": {
    "rt": 5862,
    "responses": "{\"Q0\":\"5\",\"Q1\":\"0\"}",
    "trial_type": "survey-likert",
    "trial_index": 27,
    "time_elapsed": 583746,
    "internal_node_id": "0.0-2.12-1.12"
  },
  "28": {
    "rt": -1,
    "stimulus": "<center> What snack food is an ingredient in the explosive dynamite?</center>",
    "key_press": -1,
    "trial_type": "single-stim",
    "trial_index": 28,
    "time_elapsed": 590748,
    "internal_node_id": "0.0-2.13-0.13"
  },
  "29": {
    "rt": 6069,
    "responses": "{\"Q0\":\"5\",\"Q1\":\"0\"}",
    "trial_type": "survey-likert",
    "trial_index": 29,
    "time_elapsed": 597819,
    "internal_node_id": "0.0-2.13-1.13"
  },
  "30": {
    "rt": -1,
    "stimulus": "<center> What is the only country in the world where women dominate the government?</center>",
    "key_press": -1,
    "trial_type": "single-stim",
    "trial_index": 30,
    "time_elapsed": 604822,
    "internal_node_id": "0.0-2.14-0.14"
  },
  "31": {
    "rt": 3238,
    "responses": "{\"Q0\":\"5\",\"Q1\":\"0\"}",
    "trial_type": "survey-likert",
    "trial_index": 31,
    "time_elapsed": 609063,
    "internal_node_id": "0.0-2.14-1.14"
  },
  "32": {
    "rt": -1,
    "stimulus": "<center> From what city in the United States did Coca-Cola originate?</center>",
    "key_press": -1,
    "trial_type": "single-stim",
    "trial_index": 32,
    "time_elapsed": 616065,
    "internal_node_id": "0.0-2.15-0.15"
  },
  "33": {
    "rt": 3382,
    "responses": "{\"Q0\":\"5\",\"Q1\":\"0\"}",
    "trial_type": "survey-likert",
    "trial_index": 33,
    "time_elapsed": 620450,
    "internal_node_id": "0.0-2.15-1.15"
  },
  "34": {
    "rt": -1,
    "stimulus": "<center> What is the museum-surrounded space in Washington DC called?</center>",
    "key_press": -1,
    "trial_type": "single-stim",
    "trial_index": 34,
    "time_elapsed": 627451,
    "internal_node_id": "0.0-2.16-0.16"
  },
  "35": {
    "rt": 2750,
    "responses": "{\"Q0\":\"1\",\"Q1\":\"0\"}",
    "trial_type": "survey-likert",
    "trial_index": 35,
    "time_elapsed": 631204,
    "internal_node_id": "0.0-2.16-1.16"
  },
  "36": {
    "rt": -1,
    "stimulus": "<center> What is the most sober school according to The Princeton Review?</center>",
    "key_press": -1,
    "trial_type": "single-stim",
    "trial_index": 36,
    "time_elapsed": 638207,
    "internal_node_id": "0.0-2.17-0.17"
  },
  "37": {
    "rt": 2560,
    "responses": "{\"Q0\":\"1\",\"Q1\":\"0\"}",
    "trial_type": "survey-likert",
    "trial_index": 37,
    "time_elapsed": 641769,
    "internal_node_id": "0.0-2.17-1.17"
  },
  "38": {
    "rt": -1,
    "stimulus": "<center> What unfortunate handicap did Thomas Edison suffer from?</center>",
    "key_press": -1,
    "trial_type": "single-stim",
    "trial_index": 38,
    "time_elapsed": 648772,
    "internal_node_id": "0.0-2.18-0.18"
  },
  "39": {
    "rt": 3420,
    "responses": "{\"Q0\":\"4\",\"Q1\":\"0\"}",
    "trial_type": "survey-likert",
    "trial_index": 39,
    "time_elapsed": 653195,
    "internal_node_id": "0.0-2.18-1.18"
  },
  "40": {
    "rt": -1,
    "stimulus": "<center> Who was the first host of the comedy show Saturday Night Live?</center>",
    "key_press": -1,
    "trial_type": "single-stim",
    "trial_index": 40,
    "time_elapsed": 660197,
    "internal_node_id": "0.0-2.19-0.19"
  },
  "41": {
    "rt": 2726,
    "responses": "{\"Q0\":\"0\",\"Q1\":\"0\"}",
    "trial_type": "survey-likert",
    "trial_index": 41,
    "time_elapsed": 663925,
    "internal_node_id": "0.0-2.19-1.19"
  },
  "42": {
    "view_history": "[{\"page_index\":0,\"viewing_time\":92767},{\"page_index\":1,\"viewing_time\":25919}]",
    "rt": 118687,
    "trial_type": "instructions",
    "trial_index": 42,
    "time_elapsed": 783613,
    "internal_node_id": "0.0-3.0-0.0"
  },
  "43": {
    "rt": 8934,
    "responses": "{\"Q0\":[\"Questions in the bonus round will appear based on your CURIOSITY ratings\"]}",
    "checked": "[2]",
    "checked1": "2",
    "trial_type": "survey-multi-choice",
    "trial_index": 43,
    "time_elapsed": 793553,
    "internal_node_id": "0.0-3.0-1.0"
  },
  "44": {
    "view_history": "[{\"page_index\":0,\"viewing_time\":28316},{\"page_index\":1,\"viewing_time\":1410}]",
    "rt": 29726,
    "trial_type": "instructions",
    "trial_index": 44,
    "time_elapsed": 826130,
    "internal_node_id": "0.0-3.1-0.1"
  },
  "45": {
    "rt": 2535,
    "responses": "{\"Q0\":[\"Questions in the bonus round will appear based on your CORRECTNESS ratings\"]}",
    "checked": "[3]",
    "checked1": "3",
    "trial_type": "survey-multi-choice",
    "trial_index": 45,
    "time_elapsed": 829677,
    "internal_node_id": "0.0-3.1-1.1"
  },
  "46": {
    "rt": 2906,
    "stimulus": "<center> Which school has the most students over age 25 according to US News?</center>",
    "key_press": 65,
    "trial_type": "single-stim",
    "trial_index": 46,
    "time_elapsed": 835687,
    "internal_node_id": "0.0-4.0-0.0"
  },
  "47": {
    "rt": -1,
    "stimulus": "<center> Answer is </center>",
    "key_press": -1,
    "trial_type": "single-stim",
    "trial_index": 47,
    "time_elapsed": 846694,
    "internal_node_id": "0.0-4.0-1.0-0.0"
  },
  "48": {
    "rt": 3437,
    "stimulus": "<center> What city is referred to as 'Pittsburgh of the South'?</center>",
    "key_press": 20,
    "trial_type": "single-stim",
    "trial_index": 48,
    "time_elapsed": 852701,
    "internal_node_id": "0.0-4.1-0.1"
  },
  "49": {
    "rt": -1,
    "stimulus": "<center> How long were Jerry Seinfeld and his pals sentenced in the series finale?</center>",
    "key_press": -1,
    "trial_type": "single-stim",
    "trial_index": 49,
    "time_elapsed": 858706,
    "internal_node_id": "0.0-4.2-0.2"
  },
  "50": {
    "rt": 822,
    "stimulus": "<center> What instrument was invented to sound like a human singing?</center>",
    "key_press": 65,
    "trial_type": "single-stim",
    "trial_index": 50,
    "time_elapsed": 864711,
    "internal_node_id": "0.0-4.3-0.3"
  },
  "51": {
    "rt": 601,
    "stimulus": "<center> Answer is </center>",
    "key_press": 65,
    "trial_type": "single-stim",
    "trial_index": 51,
    "time_elapsed": 875718,
    "internal_node_id": "0.0-4.3-1.3-0.3"
  },
  "52": {
    "rt": -1,
    "stimulus": "<center> What invention should make Ts'ai Lun, a 2nd century inventor, a household name?</center>",
    "key_press": -1,
    "trial_type": "single-stim",
    "trial_index": 52,
    "time_elapsed": 881725,
    "internal_node_id": "0.0-4.4-0.4"
  },
  "53": {
    "rt": -1,
    "stimulus": "<center> What is the only type of animal besides a human that can get a sunburn?</center>",
    "key_press": -1,
    "trial_type": "single-stim",
    "trial_index": 53,
    "time_elapsed": 887729,
    "internal_node_id": "0.0-4.5-0.5"
  },
  "54": {
    "rt": 2158,
    "stimulus": "<center> What type of political campaign is characterized by many stops in small towns?</center>",
    "key_press": 65,
    "trial_type": "single-stim",
    "trial_index": 54,
    "time_elapsed": 893735,
    "internal_node_id": "0.0-4.6-0.6"
  },
  "55": {
    "rt": -1,
    "stimulus": "<center> Answer is </center>",
    "key_press": -1,
    "trial_type": "single-stim",
    "trial_index": 55,
    "time_elapsed": 904744,
    "internal_node_id": "0.0-4.6-1.6-0.6"
  },
  "56": {
    "rt": 617,
    "stimulus": "<center> What animal can shed up to 30,000 teeth in its lifetime?</center>",
    "key_press": 65,
    "trial_type": "single-stim",
    "trial_index": 56,
    "time_elapsed": 910747,
    "internal_node_id": "0.0-4.7-0.7"
  },
  "57": {
    "rt": -1,
    "stimulus": "<center> Answer is </center>",
    "key_press": -1,
    "trial_type": "single-stim",
    "trial_index": 57,
    "time_elapsed": 921756,
    "internal_node_id": "0.0-4.7-1.7-0.7"
  },
  "58": {
    "rt": -1,
    "stimulus": "<center> What rock and roll band performs -I want to Rock and Roll All Night?</center>",
    "key_press": -1,
    "trial_type": "single-stim",
    "trial_index": 58,
    "time_elapsed": 927762,
    "internal_node_id": "0.0-4.8-0.8"
  },
  "59": {
    "rt": 2094,
    "stimulus": "<center> What book is the most shoplifted book in the world?</center>",
    "key_press": 65,
    "trial_type": "single-stim",
    "trial_index": 59,
    "time_elapsed": 933769,
    "internal_node_id": "0.0-4.9-0.9"
  },
  "60": {
    "rt": -1,
    "stimulus": "<center> Answer is </center>",
    "key_press": -1,
    "trial_type": "single-stim",
    "trial_index": 60,
    "time_elapsed": 944777,
    "internal_node_id": "0.0-4.9-1.9-0.9"
  },
  "61": {
    "rt": -1,
    "stimulus": "<center> What animal's excrements are consumed as luxury food?</center>",
    "key_press": -1,
    "trial_type": "single-stim",
    "trial_index": 61,
    "time_elapsed": 950782,
    "internal_node_id": "0.0-4.10-0.10"
  },
  "62": {
    "rt": 4231,
    "stimulus": "<center> What city was Groundhog Day, starring Bill Murray, filmed in?</center>",
    "key_press": 65,
    "trial_type": "single-stim",
    "trial_index": 62,
    "time_elapsed": 956787,
    "internal_node_id": "0.0-4.11-0.11"
  },
  "63": {
    "rt": -1,
    "stimulus": "<center> Answer is </center>",
    "key_press": -1,
    "trial_type": "single-stim",
    "trial_index": 63,
    "time_elapsed": 967795,
    "internal_node_id": "0.0-4.11-1.11-0.11"
  },
  "64": {
    "rt": 2455,
    "stimulus": "<center> What breed of dog is the only animal whose evidence is admissible in American courts?</center>",
    "key_press": 65,
    "trial_type": "single-stim",
    "trial_index": 64,
    "time_elapsed": 973801,
    "internal_node_id": "0.0-4.12-0.12"
  },
  "65": {
    "rt": -1,
    "stimulus": "<center> Answer is </center>",
    "key_press": -1,
    "trial_type": "single-stim",
    "trial_index": 65,
    "time_elapsed": 984807,
    "internal_node_id": "0.0-4.12-1.12-0.12"
  },
  "66": {
    "rt": -1,
    "stimulus": "<center> What snack food is an ingredient in the explosive dynamite?</center>",
    "key_press": -1,
    "trial_type": "single-stim",
    "trial_index": 66,
    "time_elapsed": 990815,
    "internal_node_id": "0.0-4.13-0.13"
  },
  "67": {
    "rt": -1,
    "stimulus": "<center> What is the only country in the world where women dominate the government?</center>",
    "key_press": -1,
    "trial_type": "single-stim",
    "trial_index": 67,
    "time_elapsed": 996820,
    "internal_node_id": "0.0-4.14-0.14"
  },
  "68": {
    "rt": 1766,
    "stimulus": "<center> From what city in the United States did Coca-Cola originate?</center>",
    "key_press": 65,
    "trial_type": "single-stim",
    "trial_index": 68,
    "time_elapsed": 1002826,
    "internal_node_id": "0.0-4.15-0.15"
  },
  "69": {
    "rt": -1,
    "stimulus": "<center> Answer is </center>",
    "key_press": -1,
    "trial_type": "single-stim",
    "trial_index": 69,
    "time_elapsed": 1013830,
    "internal_node_id": "0.0-4.15-1.15-0.15"
  },
  "70": {
    "rt": 4687,
    "stimulus": "<center> What is the museum-surrounded space in Washington DC called?</center>",
    "key_press": 65,
    "trial_type": "single-stim",
    "trial_index": 70,
    "time_elapsed": 1019840,
    "internal_node_id": "0.0-4.16-0.16"
  },
  "71": {
    "rt": -1,
    "stimulus": "<center> Answer is </center>",
    "key_press": -1,
    "trial_type": "single-stim",
    "trial_index": 71,
    "time_elapsed": 1030848,
    "internal_node_id": "0.0-4.16-1.16-0.16"
  },
  "72": {
    "rt": 1533,
    "stimulus": "<center> What is the most sober school according to The Princeton Review?</center>",
    "key_press": 65,
    "trial_type": "single-stim",
    "trial_index": 72,
    "time_elapsed": 1036854,
    "internal_node_id": "0.0-4.17-0.17"
  },
  "73": {
    "rt": -1,
    "stimulus": "<center> Answer is </center>",
    "key_press": -1,
    "trial_type": "single-stim",
    "trial_index": 73,
    "time_elapsed": 1047863,
    "internal_node_id": "0.0-4.17-1.17-0.17"
  },
  "74": {
    "rt": 4426,
    "stimulus": "<center> What unfortunate handicap did Thomas Edison suffer from?</center>",
    "key_press": 65,
    "trial_type": "single-stim",
    "trial_index": 74,
    "time_elapsed": 1053868,
    "internal_node_id": "0.0-4.18-0.18"
  },
  "75": {
    "rt": -1,
    "stimulus": "<center> Answer is </center>",
    "key_press": -1,
    "trial_type": "single-stim",
    "trial_index": 75,
    "time_elapsed": 1064870,
    "internal_node_id": "0.0-4.18-1.18-0.18"
  },
  "76": {
    "rt": 445,
    "stimulus": "<center> Who was the first host of the comedy show Saturday Night Live?</center>",
    "key_press": 65,
    "trial_type": "single-stim",
    "trial_index": 76,
    "time_elapsed": 1070876,
    "internal_node_id": "0.0-4.19-0.19"
  },
  "77": {
    "rt": -1,
    "stimulus": "<center> Answer is </center>",
    "key_press": -1,
    "trial_type": "single-stim",
    "trial_index": 77,
    "time_elapsed": 1081887,
    "internal_node_id": "0.0-4.19-1.19-0.19"
  },
  "78": {
    "view_history": "[{\"page_index\":0,\"viewing_time\":8735}]",
    "rt": 8735,
    "trial_type": "instructions",
    "trial_index": 78,
    "time_elapsed": 1091626,
    "internal_node_id": "0.0-5.0"
  },
  "79": {
    "rt": 77199,
    "responses": "{\"Q0\":\"Whistle movement\\n\\n\",\"Q1\":\"\",\"Q2\":\"paper\",\"Q3\":\"The Bible\",\"Q4\":\"\",\"Q5\":\"Violin\",\"Q6\":\"\",\"Q7\":\"\",\"Q8\":\"Shark\",\"Q9\":\"\"}",
    "trial_type": "survey-text-2",
    "trial_index": 79,
    "time_elapsed": 1169836,
    "internal_node_id": "0.0-6.0",
    "date": "Wed, 01 Dec 2021 04:33:10 GMT",
    "completed": true,
    "condition": 1
  },
  "_id": {
    "$oid": "61a6fb06ed7c4ba9d12dcfcd"
  },
  "filename": "curiosity1638333190213.csv",
  "__v": 0
},{
  "0": {
    "rt": 12038,
    "responses": "{\"Q0\":\"3\"}",
    "trial_type": "survey-text",
    "trial_index": 0,
    "time_elapsed": 12044,
    "internal_node_id": "0.0-0.0"
  },
  "1": {
    "view_history": "[{\"page_index\":0,\"viewing_time\":22085},{\"page_index\":1,\"viewing_time\":54572}]",
    "rt": 76659,
    "index_shuffled": [
      0,
      11,
      17,
      5,
      8,
      12,
      16,
      1,
      6,
      13,
      7,
      18,
      3,
      14,
      9,
      10,
      19,
      4,
      2,
      15
    ],
    "trial_type": "instructions",
    "trial_index": 1,
    "time_elapsed": 89710,
    "internal_node_id": "0.0-1.0"
  },
  "2": {
    "rt": -1,
    "stimulus": "<center> What rock and roll band performs -I want to Rock and Roll All Night?</center>",
    "key_press": -1,
    "trial_type": "single-stim",
    "trial_index": 2,
    "time_elapsed": 96725,
    "internal_node_id": "0.0-2.0-0.0"
  },
  "3": {
    "rt": 26152,
    "responses": "{\"Q0\":\"0\",\"Q1\":\"0\"}",
    "trial_type": "survey-likert",
    "trial_index": 3,
    "time_elapsed": 123886,
    "internal_node_id": "0.0-2.0-1.0"
  },
  "4": {
    "rt": -1,
    "stimulus": "<center> What invention should make Ts'ai Lun, a 2nd century inventor, a household name?</center>",
    "key_press": -1,
    "trial_type": "single-stim",
    "trial_index": 4,
    "time_elapsed": 130892,
    "internal_node_id": "0.0-2.1-0.1"
  },
  "5": {
    "rt": 8688,
    "responses": "{\"Q0\":\"0\",\"Q1\":\"0\"}",
    "trial_type": "survey-likert",
    "trial_index": 5,
    "time_elapsed": 140592,
    "internal_node_id": "0.0-2.1-1.1"
  },
  "6": {
    "rt": -1,
    "stimulus": "<center> What instrument was invented to sound like a human singing?</center>",
    "key_press": -1,
    "trial_type": "single-stim",
    "trial_index": 6,
    "time_elapsed": 147604,
    "internal_node_id": "0.0-2.2-0.2"
  },
  "7": {
    "rt": 18700,
    "responses": "{\"Q0\":\"4\",\"Q1\":\"0\"}",
    "trial_type": "survey-likert",
    "trial_index": 7,
    "time_elapsed": 167312,
    "internal_node_id": "0.0-2.2-1.2"
  },
  "8": {
    "rt": -1,
    "stimulus": "<center> How long were Jerry Seinfeld and his pals sentenced in the series finale?</center>",
    "key_press": -1,
    "trial_type": "single-stim",
    "trial_index": 8,
    "time_elapsed": 174324,
    "internal_node_id": "0.0-2.3-0.3"
  },
  "9": {
    "rt": 2708,
    "responses": "{\"Q0\":\"0\",\"Q1\":\"0\"}",
    "trial_type": "survey-likert",
    "trial_index": 9,
    "time_elapsed": 178043,
    "internal_node_id": "0.0-2.3-1.3"
  },
  "10": {
    "rt": -1,
    "stimulus": "<center> What snack food is an ingredient in the explosive dynamite?</center>",
    "key_press": -1,
    "trial_type": "single-stim",
    "trial_index": 10,
    "time_elapsed": 185055,
    "internal_node_id": "0.0-2.4-0.4"
  },
  "11": {
    "rt": 7378,
    "responses": "{\"Q0\":\"2\",\"Q1\":\"1\"}",
    "trial_type": "survey-likert",
    "trial_index": 11,
    "time_elapsed": 193443,
    "internal_node_id": "0.0-2.4-1.4"
  },
  "12": {
    "rt": -1,
    "stimulus": "<center> What breed of dog is the only animal whose evidence is admissible in American courts?</center>",
    "key_press": -1,
    "trial_type": "single-stim",
    "trial_index": 12,
    "time_elapsed": 200457,
    "internal_node_id": "0.0-2.5-0.5"
  },
  "13": {
    "rt": 5350,
    "responses": "{\"Q0\":\"6\",\"Q1\":\"0\"}",
    "trial_type": "survey-likert",
    "trial_index": 13,
    "time_elapsed": 206818,
    "internal_node_id": "0.0-2.5-1.5"
  },
  "14": {
    "rt": -1,
    "stimulus": "<center> What type of political campaign is characterized by many stops in small towns?</center>",
    "key_press": -1,
    "trial_type": "single-stim",
    "trial_index": 14,
    "time_elapsed": 213827,
    "internal_node_id": "0.0-2.6-0.6"
  },
  "15": {
    "rt": 5792,
    "responses": "{\"Q0\":\"1\",\"Q1\":\"0\"}",
    "trial_type": "survey-likert",
    "trial_index": 15,
    "time_elapsed": 220624,
    "internal_node_id": "0.0-2.6-1.6"
  },
  "16": {
    "rt": -1,
    "stimulus": "<center> What unfortunate handicap did Thomas Edison suffer from?</center>",
    "key_press": -1,
    "trial_type": "single-stim",
    "trial_index": 16,
    "time_elapsed": 227634,
    "internal_node_id": "0.0-2.7-0.7"
  },
  "17": {
    "rt": 4700,
    "responses": "{\"Q0\":\"3\",\"Q1\":\"0\"}",
    "trial_type": "survey-likert",
    "trial_index": 17,
    "time_elapsed": 233347,
    "internal_node_id": "0.0-2.7-1.7"
  },
  "18": {
    "rt": -1,
    "stimulus": "<center> What is the only type of animal besides a human that can get a sunburn?</center>",
    "key_press": -1,
    "trial_type": "single-stim",
    "trial_index": 18,
    "time_elapsed": 240350,
    "internal_node_id": "0.0-2.8-0.8"
  },
  "19": {
    "rt": 8497,
    "responses": "{\"Q0\":\"6\",\"Q1\":\"0\"}",
    "trial_type": "survey-likert",
    "trial_index": 19,
    "time_elapsed": 249851,
    "internal_node_id": "0.0-2.8-1.8"
  },
  "20": {
    "rt": -1,
    "stimulus": "<center> What animal can shed up to 30,000 teeth in its lifetime?</center>",
    "key_press": -1,
    "trial_type": "single-stim",
    "trial_index": 20,
    "time_elapsed": 256858,
    "internal_node_id": "0.0-2.9-0.9"
  },
  "21": {
    "rt": 4035,
    "responses": "{\"Q0\":\"6\",\"Q1\":\"0\"}",
    "trial_type": "survey-likert",
    "trial_index": 21,
    "time_elapsed": 261899,
    "internal_node_id": "0.0-2.9-1.9"
  },
  "22": {
    "rt": -1,
    "stimulus": "<center> Which school has the most students over age 25 according to US News?</center>",
    "key_press": -1,
    "trial_type": "single-stim",
    "trial_index": 22,
    "time_elapsed": 268909,
    "internal_node_id": "0.0-2.10-0.10"
  },
  "23": {
    "rt": 5425,
    "responses": "{\"Q0\":\"1\",\"Q1\":\"0\"}",
    "trial_type": "survey-likert",
    "trial_index": 23,
    "time_elapsed": 275342,
    "internal_node_id": "0.0-2.10-1.10"
  },
  "24": {
    "rt": -1,
    "stimulus": "<center> From what city in the United States did Coca-Cola originate?</center>",
    "key_press": -1,
    "trial_type": "single-stim",
    "trial_index": 24,
    "time_elapsed": 282349,
    "internal_node_id": "0.0-2.11-0.11"
  },
  "25": {
    "rt": 8885,
    "responses": "{\"Q0\":\"3\",\"Q1\":\"2\"}",
    "trial_type": "survey-likert",
    "trial_index": 25,
    "time_elapsed": 292240,
    "internal_node_id": "0.0-2.11-1.11"
  },
  "26": {
    "rt": -1,
    "stimulus": "<center> What book is the most shoplifted book in the world?</center>",
    "key_press": -1,
    "trial_type": "single-stim",
    "trial_index": 26,
    "time_elapsed": 299252,
    "internal_node_id": "0.0-2.12-0.12"
  },
  "27": {
    "rt": 4027,
    "responses": "{\"Q0\":\"2\",\"Q1\":\"0\"}",
    "trial_type": "survey-likert",
    "trial_index": 27,
    "time_elapsed": 304289,
    "internal_node_id": "0.0-2.12-1.12"
  },
  "28": {
    "rt": -1,
    "stimulus": "<center> Who was the first host of the comedy show Saturday Night Live?</center>",
    "key_press": -1,
    "trial_type": "single-stim",
    "trial_index": 28,
    "time_elapsed": 311297,
    "internal_node_id": "0.0-2.13-0.13"
  },
  "29": {
    "rt": 3289,
    "responses": "{\"Q0\":\"0\",\"Q1\":\"0\"}",
    "trial_type": "survey-likert",
    "trial_index": 29,
    "time_elapsed": 315593,
    "internal_node_id": "0.0-2.13-1.13"
  },
  "30": {
    "rt": -1,
    "stimulus": "<center> What is the most sober school according to The Princeton Review?</center>",
    "key_press": -1,
    "trial_type": "single-stim",
    "trial_index": 30,
    "time_elapsed": 322604,
    "internal_node_id": "0.0-2.14-0.14"
  },
  "31": {
    "rt": 3851,
    "responses": "{\"Q0\":\"3\",\"Q1\":\"0\"}",
    "trial_type": "survey-likert",
    "trial_index": 31,
    "time_elapsed": 327462,
    "internal_node_id": "0.0-2.14-1.14"
  },
  "32": {
    "rt": -1,
    "stimulus": "<center> What city is referred to as 'Pittsburgh of the South'?</center>",
    "key_press": -1,
    "trial_type": "single-stim",
    "trial_index": 32,
    "time_elapsed": 334472,
    "internal_node_id": "0.0-2.15-0.15"
  },
  "33": {
    "rt": 2173,
    "responses": "{\"Q0\":\"1\",\"Q1\":\"0\"}",
    "trial_type": "survey-likert",
    "trial_index": 33,
    "time_elapsed": 337652,
    "internal_node_id": "0.0-2.15-1.15"
  },
  "34": {
    "rt": -1,
    "stimulus": "<center> What animal's excrements are consumed as luxury food?</center>",
    "key_press": -1,
    "trial_type": "single-stim",
    "trial_index": 34,
    "time_elapsed": 344666,
    "internal_node_id": "0.0-2.16-0.16"
  },
  "35": {
    "rt": 3259,
    "responses": "{\"Q0\":\"0\",\"Q1\":\"0\"}",
    "trial_type": "survey-likert",
    "trial_index": 35,
    "time_elapsed": 348936,
    "internal_node_id": "0.0-2.16-1.16"
  },
  "36": {
    "rt": -1,
    "stimulus": "<center> What is the museum-surrounded space in Washington DC called?</center>",
    "key_press": -1,
    "trial_type": "single-stim",
    "trial_index": 36,
    "time_elapsed": 355943,
    "internal_node_id": "0.0-2.17-0.17"
  },
  "37": {
    "rt": 6474,
    "responses": "{\"Q0\":\"1\",\"Q1\":\"9\"}",
    "trial_type": "survey-likert",
    "trial_index": 37,
    "time_elapsed": 363425,
    "internal_node_id": "0.0-2.17-1.17"
  },
  "38": {
    "rt": -1,
    "stimulus": "<center> What city was Groundhog Day, starring Bill Murray, filmed in?</center>",
    "key_press": -1,
    "trial_type": "single-stim",
    "trial_index": 38,
    "time_elapsed": 370430,
    "internal_node_id": "0.0-2.18-0.18"
  },
  "39": {
    "rt": 3220,
    "responses": "{\"Q0\":\"0\",\"Q1\":\"0\"}",
    "trial_type": "survey-likert",
    "trial_index": 39,
    "time_elapsed": 374655,
    "internal_node_id": "0.0-2.18-1.18"
  },
  "40": {
    "rt": -1,
    "stimulus": "<center> What is the only country in the world where women dominate the government?</center>",
    "key_press": -1,
    "trial_type": "single-stim",
    "trial_index": 40,
    "time_elapsed": 381665,
    "internal_node_id": "0.0-2.19-0.19"
  },
  "41": {
    "rt": 6962,
    "responses": "{\"Q0\":\"6\",\"Q1\":\"0\"}",
    "trial_type": "survey-likert",
    "trial_index": 41,
    "time_elapsed": 389637,
    "internal_node_id": "0.0-2.19-1.19"
  },
  "42": {
    "view_history": "[{\"page_index\":0,\"viewing_time\":5690},{\"page_index\":1,\"viewing_time\":17068},{\"page_index\":0,\"viewing_time\":1056},{\"page_index\":1,\"viewing_time\":1395}]",
    "rt": 25209,
    "trial_type": "instructions",
    "trial_index": 42,
    "time_elapsed": 415849,
    "internal_node_id": "0.0-3.0-0.0"
  },
  "43": {
    "rt": 38452,
    "responses": "{\"Q0\":[\"Questions in the bonus round will appear based on your CURIOSITY ratings\"]}",
    "checked": "[2]",
    "checked1": "2",
    "trial_type": "survey-multi-choice",
    "trial_index": 43,
    "time_elapsed": 455318,
    "internal_node_id": "0.0-3.0-1.0"
  },
  "44": {
    "view_history": "[{\"page_index\":0,\"viewing_time\":27800},{\"page_index\":1,\"viewing_time\":1731}]",
    "rt": 29532,
    "trial_type": "instructions",
    "trial_index": 44,
    "time_elapsed": 506773,
    "internal_node_id": "0.0-3.1-0.1"
  },
  "45": {
    "rt": 2581,
    "responses": "{\"Q0\":[\"Questions in the bonus round will appear based on your CORRECTNESS ratings\"]}",
    "checked": "[3]",
    "checked1": "3",
    "trial_type": "survey-multi-choice",
    "trial_index": 45,
    "time_elapsed": 510367,
    "internal_node_id": "0.0-3.1-1.1"
  },
  "46": {
    "rt": -1,
    "stimulus": "<center> What rock and roll band performs -I want to Rock and Roll All Night?</center>",
    "key_press": -1,
    "trial_type": "single-stim",
    "trial_index": 46,
    "time_elapsed": 516380,
    "internal_node_id": "0.0-4.0-0.0"
  },
  "47": {
    "rt": -1,
    "stimulus": "<center> What invention should make Ts'ai Lun, a 2nd century inventor, a household name?</center>",
    "key_press": -1,
    "trial_type": "single-stim",
    "trial_index": 47,
    "time_elapsed": 522392,
    "internal_node_id": "0.0-4.1-0.1"
  },
  "48": {
    "rt": 1492,
    "stimulus": "<center> What instrument was invented to sound like a human singing?</center>",
    "key_press": 65,
    "trial_type": "single-stim",
    "trial_index": 48,
    "time_elapsed": 528403,
    "internal_node_id": "0.0-4.2-0.2"
  },
  "49": {
    "rt": 5170,
    "stimulus": "<center> Answer is </center>",
    "key_press": 65,
    "trial_type": "single-stim",
    "trial_index": 49,
    "time_elapsed": 539417,
    "internal_node_id": "0.0-4.2-1.2-0.2"
  },
  "50": {
    "rt": -1,
    "stimulus": "<center> How long were Jerry Seinfeld and his pals sentenced in the series finale?</center>",
    "key_press": -1,
    "trial_type": "single-stim",
    "trial_index": 50,
    "time_elapsed": 545425,
    "internal_node_id": "0.0-4.3-0.3"
  },
  "51": {
    "rt": 2468,
    "stimulus": "<center> What snack food is an ingredient in the explosive dynamite?</center>",
    "key_press": 65,
    "trial_type": "single-stim",
    "trial_index": 51,
    "time_elapsed": 551439,
    "internal_node_id": "0.0-4.4-0.4"
  },
  "52": {
    "rt": -1,
    "stimulus": "<center> Answer is </center>",
    "key_press": -1,
    "trial_type": "single-stim",
    "trial_index": 52,
    "time_elapsed": 562446,
    "internal_node_id": "0.0-4.4-1.4-0.4"
  },
  "53": {
    "rt": 3938,
    "stimulus": "<center> What breed of dog is the only animal whose evidence is admissible in American courts?</center>",
    "key_press": 65,
    "trial_type": "single-stim",
    "trial_index": 53,
    "time_elapsed": 568456,
    "internal_node_id": "0.0-4.5-0.5"
  },
  "54": {
    "rt": 9337,
    "stimulus": "<center> Answer is </center>",
    "key_press": 72,
    "trial_type": "single-stim",
    "trial_index": 54,
    "time_elapsed": 579465,
    "internal_node_id": "0.0-4.5-1.5-0.5"
  },
  "55": {
    "rt": 4621,
    "stimulus": "<center> What type of political campaign is characterized by many stops in small towns?</center>",
    "key_press": 65,
    "trial_type": "single-stim",
    "trial_index": 55,
    "time_elapsed": 585477,
    "internal_node_id": "0.0-4.6-0.6"
  },
  "56": {
    "rt": 1887,
    "stimulus": "<center> Answer is </center>",
    "key_press": 32,
    "trial_type": "single-stim",
    "trial_index": 56,
    "time_elapsed": 596483,
    "internal_node_id": "0.0-4.6-1.6-0.6"
  },
  "57": {
    "rt": 4297,
    "stimulus": "<center> What unfortunate handicap did Thomas Edison suffer from?</center>",
    "key_press": 65,
    "trial_type": "single-stim",
    "trial_index": 57,
    "time_elapsed": 602495,
    "internal_node_id": "0.0-4.7-0.7"
  },
  "58": {
    "rt": 3014,
    "stimulus": "<center> Answer is </center>",
    "key_press": 66,
    "trial_type": "single-stim",
    "trial_index": 58,
    "time_elapsed": 613504,
    "internal_node_id": "0.0-4.7-1.7-0.7"
  },
  "59": {
    "rt": -1,
    "stimulus": "<center> What is the only type of animal besides a human that can get a sunburn?</center>",
    "key_press": -1,
    "trial_type": "single-stim",
    "trial_index": 59,
    "time_elapsed": 619515,
    "internal_node_id": "0.0-4.8-0.8"
  },
  "60": {
    "rt": 2031,
    "stimulus": "<center> What animal can shed up to 30,000 teeth in its lifetime?</center>",
    "key_press": 65,
    "trial_type": "single-stim",
    "trial_index": 60,
    "time_elapsed": 625529,
    "internal_node_id": "0.0-4.9-0.9"
  },
  "61": {
    "rt": 2512,
    "stimulus": "<center> Answer is </center>",
    "key_press": 71,
    "trial_type": "single-stim",
    "trial_index": 61,
    "time_elapsed": 636540,
    "internal_node_id": "0.0-4.9-1.9-0.9"
  },
  "62": {
    "rt": 2782,
    "stimulus": "<center> Which school has the most students over age 25 according to US News?</center>",
    "key_press": 65,
    "trial_type": "single-stim",
    "trial_index": 62,
    "time_elapsed": 642555,
    "internal_node_id": "0.0-4.10-0.10"
  },
  "63": {
    "rt": 2282,
    "stimulus": "<center> Answer is </center>",
    "key_press": 70,
    "trial_type": "single-stim",
    "trial_index": 63,
    "time_elapsed": 653566,
    "internal_node_id": "0.0-4.10-1.10-0.10"
  },
  "64": {
    "rt": 2397,
    "stimulus": "<center> From what city in the United States did Coca-Cola originate?</center>",
    "key_press": 65,
    "trial_type": "single-stim",
    "trial_index": 64,
    "time_elapsed": 659577,
    "internal_node_id": "0.0-4.11-0.11"
  },
  "65": {
    "rt": 808,
    "stimulus": "<center> Answer is </center>",
    "key_press": 70,
    "trial_type": "single-stim",
    "trial_index": 65,
    "time_elapsed": 670583,
    "internal_node_id": "0.0-4.11-1.11-0.11"
  },
  "66": {
    "rt": 2223,
    "stimulus": "<center> What book is the most shoplifted book in the world?</center>",
    "key_press": 65,
    "trial_type": "single-stim",
    "trial_index": 66,
    "time_elapsed": 676594,
    "internal_node_id": "0.0-4.12-0.12"
  },
  "67": {
    "rt": 2295,
    "stimulus": "<center> Answer is </center>",
    "key_press": 70,
    "trial_type": "single-stim",
    "trial_index": 67,
    "time_elapsed": 687607,
    "internal_node_id": "0.0-4.12-1.12-0.12"
  },
  "68": {
    "rt": -1,
    "stimulus": "<center> Who was the first host of the comedy show Saturday Night Live?</center>",
    "key_press": -1,
    "trial_type": "single-stim",
    "trial_index": 68,
    "time_elapsed": 693619,
    "internal_node_id": "0.0-4.13-0.13"
  },
  "69": {
    "rt": 1614,
    "stimulus": "<center> What is the most sober school according to The Princeton Review?</center>",
    "key_press": 65,
    "trial_type": "single-stim",
    "trial_index": 69,
    "time_elapsed": 699630,
    "internal_node_id": "0.0-4.14-0.14"
  },
  "70": {
    "rt": -1,
    "stimulus": "<center> Answer is </center>",
    "key_press": -1,
    "trial_type": "single-stim",
    "trial_index": 70,
    "time_elapsed": 710640,
    "internal_node_id": "0.0-4.14-1.14-0.14"
  },
  "71": {
    "rt": 4066,
    "stimulus": "<center> What city is referred to as 'Pittsburgh of the South'?</center>",
    "key_press": 65,
    "trial_type": "single-stim",
    "trial_index": 71,
    "time_elapsed": 716653,
    "internal_node_id": "0.0-4.15-0.15"
  },
  "72": {
    "rt": 5815,
    "stimulus": "<center> Answer is </center>",
    "key_press": 65,
    "trial_type": "single-stim",
    "trial_index": 72,
    "time_elapsed": 727663,
    "internal_node_id": "0.0-4.15-1.15-0.15"
  },
  "73": {
    "rt": -1,
    "stimulus": "<center> What animal's excrements are consumed as luxury food?</center>",
    "key_press": -1,
    "trial_type": "single-stim",
    "trial_index": 73,
    "time_elapsed": 733673,
    "internal_node_id": "0.0-4.16-0.16"
  },
  "74": {
    "rt": 2813,
    "stimulus": "<center> What is the museum-surrounded space in Washington DC called?</center>",
    "key_press": 65,
    "trial_type": "single-stim",
    "trial_index": 74,
    "time_elapsed": 739683,
    "internal_node_id": "0.0-4.17-0.17"
  },
  "75": {
    "rt": -1,
    "stimulus": "<center> Answer is </center>",
    "key_press": -1,
    "trial_type": "single-stim",
    "trial_index": 75,
    "time_elapsed": 750696,
    "internal_node_id": "0.0-4.17-1.17-0.17"
  },
  "76": {
    "rt": -1,
    "stimulus": "<center> What city was Groundhog Day, starring Bill Murray, filmed in?</center>",
    "key_press": -1,
    "trial_type": "single-stim",
    "trial_index": 76,
    "time_elapsed": 756710,
    "internal_node_id": "0.0-4.18-0.18"
  },
  "77": {
    "rt": 4268,
    "stimulus": "<center> What is the only country in the world where women dominate the government?</center>",
    "key_press": 65,
    "trial_type": "single-stim",
    "trial_index": 77,
    "time_elapsed": 762722,
    "internal_node_id": "0.0-4.19-0.19"
  },
  "78": {
    "rt": 7000,
    "stimulus": "<center> Answer is </center>",
    "key_press": 70,
    "trial_type": "single-stim",
    "trial_index": 78,
    "time_elapsed": 773730,
    "internal_node_id": "0.0-4.19-1.19-0.19"
  },
  "79": {
    "view_history": "[{\"page_index\":0,\"viewing_time\":18998}]",
    "rt": 19000,
    "trial_type": "instructions",
    "trial_index": 79,
    "time_elapsed": 793732,
    "internal_node_id": "0.0-5.0"
  },
  "80": {
    "rt": 85680,
    "responses": "{\"Q0\":\"phoenix u\",\"Q1\":\"altlanda\",\"Q2\":\"\",\"Q3\":\"the mall\",\"Q4\":\"deaf\",\"Q5\":\"\",\"Q6\":\"\",\"Q7\":\"\",\"Q8\":\"bible\",\"Q9\":\"\"}",
    "trial_type": "survey-text-2",
    "trial_index": 80,
    "time_elapsed": 880435,
    "internal_node_id": "0.0-6.0",
    "date": "Thu, 02 Dec 2021 04:43:27 GMT",
    "completed": true,
    "condition": 1
  },
  "_id": {
    "$oid": "61a84eef48acb36eb8755fc6"
  },
  "filename": "curiosity1638420207224.json",
  "__v": 0
},{
  "0": {
    "rt": 4808,
    "responses": "{\"Q0\":\"4\"}",
    "trial_type": "survey-text",
    "trial_index": 0,
    "time_elapsed": 4815,
    "internal_node_id": "0.0-0.0"
  },
  "1": {
    "view_history": "[{\"page_index\":0,\"viewing_time\":8357},{\"page_index\":1,\"viewing_time\":53461}]",
    "rt": 61820,
    "index_shuffled": [
      9,
      15,
      17,
      14,
      16,
      13,
      11,
      4,
      6,
      12,
      10,
      3,
      5,
      2,
      0,
      19,
      1,
      7,
      8,
      18
    ],
    "trial_type": "instructions",
    "trial_index": 1,
    "time_elapsed": 67644,
    "internal_node_id": "0.0-1.0"
  },
  "2": {
    "rt": -1,
    "stimulus": "<center> What is the most sober school according to The Princeton Review?</center>",
    "key_press": -1,
    "trial_type": "single-stim",
    "trial_index": 2,
    "time_elapsed": 74656,
    "internal_node_id": "0.0-2.0-0.0"
  },
  "3": {
    "rt": 11828,
    "responses": "{\"Q0\":\"2\",\"Q1\":\"0\"}",
    "trial_type": "survey-likert",
    "trial_index": 3,
    "time_elapsed": 87498,
    "internal_node_id": "0.0-2.0-1.0"
  },
  "4": {
    "rt": -1,
    "stimulus": "<center> What is the only country in the world where women dominate the government?</center>",
    "key_press": -1,
    "trial_type": "single-stim",
    "trial_index": 4,
    "time_elapsed": 94514,
    "internal_node_id": "0.0-2.1-0.1"
  },
  "5": {
    "rt": 8157,
    "responses": "{\"Q0\":\"3\",\"Q1\":\"4\"}",
    "trial_type": "survey-likert",
    "trial_index": 5,
    "time_elapsed": 103679,
    "internal_node_id": "0.0-2.1-1.1"
  },
  "6": {
    "rt": -1,
    "stimulus": "<center> What instrument was invented to sound like a human singing?</center>",
    "key_press": -1,
    "trial_type": "single-stim",
    "trial_index": 6,
    "time_elapsed": 110690,
    "internal_node_id": "0.0-2.2-0.2"
  },
  "7": {
    "rt": 10827,
    "responses": "{\"Q0\":\"2\",\"Q1\":\"1\"}",
    "trial_type": "survey-likert",
    "trial_index": 7,
    "time_elapsed": 122529,
    "internal_node_id": "0.0-2.2-1.2"
  },
  "8": {
    "rt": -1,
    "stimulus": "<center> Who was the first host of the comedy show Saturday Night Live?</center>",
    "key_press": -1,
    "trial_type": "single-stim",
    "trial_index": 8,
    "time_elapsed": 129539,
    "internal_node_id": "0.0-2.3-0.3"
  },
  "9": {
    "rt": 8753,
    "responses": "{\"Q0\":\"2\",\"Q1\":\"0\"}",
    "trial_type": "survey-likert",
    "trial_index": 9,
    "time_elapsed": 139297,
    "internal_node_id": "0.0-2.3-1.3"
  },
  "10": {
    "rt": -1,
    "stimulus": "<center> What type of political campaign is characterized by many stops in small towns?</center>",
    "key_press": -1,
    "trial_type": "single-stim",
    "trial_index": 10,
    "time_elapsed": 146309,
    "internal_node_id": "0.0-2.4-0.4"
  },
  "11": {
    "rt": 6895,
    "responses": "{\"Q0\":\"0\",\"Q1\":\"0\"}",
    "trial_type": "survey-likert",
    "trial_index": 11,
    "time_elapsed": 154214,
    "internal_node_id": "0.0-2.4-1.4"
  },
  "12": {
    "rt": -1,
    "stimulus": "<center> What animal can shed up to 30,000 teeth in its lifetime?</center>",
    "key_press": -1,
    "trial_type": "single-stim",
    "trial_index": 12,
    "time_elapsed": 161227,
    "internal_node_id": "0.0-2.5-0.5"
  },
  "13": {
    "rt": 5129,
    "responses": "{\"Q0\":\"3\",\"Q1\":\"7\"}",
    "trial_type": "survey-likert",
    "trial_index": 13,
    "time_elapsed": 167365,
    "internal_node_id": "0.0-2.5-1.5"
  },
  "14": {
    "rt": -1,
    "stimulus": "<center> What invention should make Ts'ai Lun, a 2nd century inventor, a household name?</center>",
    "key_press": -1,
    "trial_type": "single-stim",
    "trial_index": 14,
    "time_elapsed": 174376,
    "internal_node_id": "0.0-2.6-0.6"
  },
  "15": {
    "rt": 4394,
    "responses": "{\"Q0\":\"0\",\"Q1\":\"0\"}",
    "trial_type": "survey-likert",
    "trial_index": 15,
    "time_elapsed": 179780,
    "internal_node_id": "0.0-2.6-1.6"
  },
  "16": {
    "rt": -1,
    "stimulus": "<center> What is the museum-surrounded space in Washington DC called?</center>",
    "key_press": -1,
    "trial_type": "single-stim",
    "trial_index": 16,
    "time_elapsed": 186787,
    "internal_node_id": "0.0-2.7-0.7"
  },
  "17": {
    "rt": 6536,
    "responses": "{\"Q0\":\"0\",\"Q1\":\"0\"}",
    "trial_type": "survey-likert",
    "trial_index": 17,
    "time_elapsed": 194331,
    "internal_node_id": "0.0-2.7-1.7"
  },
  "18": {
    "rt": -1,
    "stimulus": "<center> What is the only type of animal besides a human that can get a sunburn?</center>",
    "key_press": -1,
    "trial_type": "single-stim",
    "trial_index": 18,
    "time_elapsed": 201341,
    "internal_node_id": "0.0-2.8-0.8"
  },
  "19": {
    "rt": 12847,
    "responses": "{\"Q0\":\"5\",\"Q1\":\"1\"}",
    "trial_type": "survey-likert",
    "trial_index": 19,
    "time_elapsed": 215198,
    "internal_node_id": "0.0-2.8-1.8"
  },
  "20": {
    "rt": -1,
    "stimulus": "<center> What breed of dog is the only animal whose evidence is admissible in American courts?</center>",
    "key_press": -1,
    "trial_type": "single-stim",
    "trial_index": 20,
    "time_elapsed": 222207,
    "internal_node_id": "0.0-2.9-0.9"
  },
  "21": {
    "rt": 8497,
    "responses": "{\"Q0\":\"5\",\"Q1\":\"2\"}",
    "trial_type": "survey-likert",
    "trial_index": 21,
    "time_elapsed": 231714,
    "internal_node_id": "0.0-2.9-1.9"
  },
  "22": {
    "rt": -1,
    "stimulus": "<center> What city is referred to as 'Pittsburgh of the South'?</center>",
    "key_press": -1,
    "trial_type": "single-stim",
    "trial_index": 22,
    "time_elapsed": 238719,
    "internal_node_id": "0.0-2.10-0.10"
  },
  "23": {
    "rt": 7737,
    "responses": "{\"Q0\":\"2\",\"Q1\":\"0\"}",
    "trial_type": "survey-likert",
    "trial_index": 23,
    "time_elapsed": 247466,
    "internal_node_id": "0.0-2.10-1.10"
  },
  "24": {
    "rt": -1,
    "stimulus": "<center> What book is the most shoplifted book in the world?</center>",
    "key_press": -1,
    "trial_type": "single-stim",
    "trial_index": 24,
    "time_elapsed": 254474,
    "internal_node_id": "0.0-2.11-0.11"
  },
  "25": {
    "rt": 17134,
    "responses": "{\"Q0\":\"3\",\"Q1\":\"10\"}",
    "trial_type": "survey-likert",
    "trial_index": 25,
    "time_elapsed": 272612,
    "internal_node_id": "0.0-2.11-1.11"
  },
  "26": {
    "rt": -1,
    "stimulus": "<center> How long were Jerry Seinfeld and his pals sentenced in the series finale?</center>",
    "key_press": -1,
    "trial_type": "single-stim",
    "trial_index": 26,
    "time_elapsed": 279626,
    "internal_node_id": "0.0-2.12-0.12"
  },
  "27": {
    "rt": 8215,
    "responses": "{\"Q0\":\"2\",\"Q1\":\"0\"}",
    "trial_type": "survey-likert",
    "trial_index": 27,
    "time_elapsed": 288849,
    "internal_node_id": "0.0-2.12-1.12"
  },
  "28": {
    "rt": -1,
    "stimulus": "<center> What city was Groundhog Day, starring Bill Murray, filmed in?</center>",
    "key_press": -1,
    "trial_type": "single-stim",
    "trial_index": 28,
    "time_elapsed": 295863,
    "internal_node_id": "0.0-2.13-0.13"
  },
  "29": {
    "rt": 5347,
    "responses": "{\"Q0\":\"2\",\"Q1\":\"0\"}",
    "trial_type": "survey-likert",
    "trial_index": 29,
    "time_elapsed": 302216,
    "internal_node_id": "0.0-2.13-1.13"
  },
  "30": {
    "rt": -1,
    "stimulus": "<center> What rock and roll band performs -I want to Rock and Roll All Night?</center>",
    "key_press": -1,
    "trial_type": "single-stim",
    "trial_index": 30,
    "time_elapsed": 309225,
    "internal_node_id": "0.0-2.14-0.14"
  },
  "31": {
    "rt": 6121,
    "responses": "{\"Q0\":\"1\",\"Q1\":\"0\"}",
    "trial_type": "survey-likert",
    "trial_index": 31,
    "time_elapsed": 316350,
    "internal_node_id": "0.0-2.14-1.14"
  },
  "32": {
    "rt": -1,
    "stimulus": "<center> What animal's excrements are consumed as luxury food?</center>",
    "key_press": -1,
    "trial_type": "single-stim",
    "trial_index": 32,
    "time_elapsed": 323358,
    "internal_node_id": "0.0-2.15-0.15"
  },
  "33": {
    "rt": 4354,
    "responses": "{\"Q0\":\"4\",\"Q1\":\"0\"}",
    "trial_type": "survey-likert",
    "trial_index": 33,
    "time_elapsed": 328716,
    "internal_node_id": "0.0-2.15-1.15"
  },
  "34": {
    "rt": -1,
    "stimulus": "<center> What unfortunate handicap did Thomas Edison suffer from?</center>",
    "key_press": -1,
    "trial_type": "single-stim",
    "trial_index": 34,
    "time_elapsed": 335727,
    "internal_node_id": "0.0-2.16-0.16"
  },
  "35": {
    "rt": 6450,
    "responses": "{\"Q0\":\"4\",\"Q1\":\"1\"}",
    "trial_type": "survey-likert",
    "trial_index": 35,
    "time_elapsed": 343182,
    "internal_node_id": "0.0-2.16-1.16"
  },
  "36": {
    "rt": -1,
    "stimulus": "<center> Which school has the most students over age 25 according to US News?</center>",
    "key_press": -1,
    "trial_type": "single-stim",
    "trial_index": 36,
    "time_elapsed": 350192,
    "internal_node_id": "0.0-2.17-0.17"
  },
  "37": {
    "rt": 7019,
    "responses": "{\"Q0\":\"4\",\"Q1\":\"1\"}",
    "trial_type": "survey-likert",
    "trial_index": 37,
    "time_elapsed": 358218,
    "internal_node_id": "0.0-2.17-1.17"
  },
  "38": {
    "rt": -1,
    "stimulus": "<center> What snack food is an ingredient in the explosive dynamite?</center>",
    "key_press": -1,
    "trial_type": "single-stim",
    "trial_index": 38,
    "time_elapsed": 365226,
    "internal_node_id": "0.0-2.18-0.18"
  },
  "39": {
    "rt": 4501,
    "responses": "{\"Q0\":\"4\",\"Q1\":\"1\"}",
    "trial_type": "survey-likert",
    "trial_index": 39,
    "time_elapsed": 370733,
    "internal_node_id": "0.0-2.18-1.18"
  },
  "40": {
    "rt": -1,
    "stimulus": "<center> From what city in the United States did Coca-Cola originate?</center>",
    "key_press": -1,
    "trial_type": "single-stim",
    "trial_index": 40,
    "time_elapsed": 377742,
    "internal_node_id": "0.0-2.19-0.19"
  },
  "41": {
    "rt": 6148,
    "responses": "{\"Q0\":\"4\",\"Q1\":\"1\"}",
    "trial_type": "survey-likert",
    "trial_index": 41,
    "time_elapsed": 384900,
    "internal_node_id": "0.0-2.19-1.19"
  },
  "42": {
    "view_history": "[{\"page_index\":0,\"viewing_time\":53235},{\"page_index\":1,\"viewing_time\":23613}]",
    "rt": 76849,
    "trial_type": "instructions",
    "trial_index": 42,
    "time_elapsed": 462750,
    "internal_node_id": "0.0-3.0-0.0"
  },
  "43": {
    "rt": 10422,
    "responses": "{\"Q0\":[\"Questions in the bonus round will appear based on your CURIOSITY ratings\"]}",
    "checked": "[2]",
    "checked1": "2",
    "trial_type": "survey-multi-choice",
    "trial_index": 43,
    "time_elapsed": 474186,
    "internal_node_id": "0.0-3.0-1.0"
  },
  "44": {
    "view_history": "[{\"page_index\":0,\"viewing_time\":3069},{\"page_index\":1,\"viewing_time\":1446}]",
    "rt": 4516,
    "trial_type": "instructions",
    "trial_index": 44,
    "time_elapsed": 483498,
    "internal_node_id": "0.0-3.1-0.1"
  },
  "45": {
    "rt": 26723,
    "responses": "{\"Q0\":[\"Questions in the bonus round will appear based on your CORRECTNESS ratings\"]}",
    "checked": "[3]",
    "checked1": "3",
    "trial_type": "survey-multi-choice",
    "trial_index": 45,
    "time_elapsed": 511233,
    "internal_node_id": "0.0-3.1-1.1"
  },
  "46": {
    "rt": 3111,
    "stimulus": "<center> What is the most sober school according to The Princeton Review?</center>",
    "key_press": 65,
    "trial_type": "single-stim",
    "trial_index": 46,
    "time_elapsed": 517243,
    "internal_node_id": "0.0-4.0-0.0"
  },
  "47": {
    "rt": -1,
    "stimulus": "<center> Answer is </center>",
    "key_press": -1,
    "trial_type": "single-stim",
    "trial_index": 47,
    "time_elapsed": 528253,
    "internal_node_id": "0.0-4.0-1.0-0.0"
  },
  "48": {
    "rt": -1,
    "stimulus": "<center> What is the only country in the world where women dominate the government?</center>",
    "key_press": -1,
    "trial_type": "single-stim",
    "trial_index": 48,
    "time_elapsed": 534263,
    "internal_node_id": "0.0-4.1-0.1"
  },
  "49": {
    "rt": -1,
    "stimulus": "<center> What instrument was invented to sound like a human singing?</center>",
    "key_press": -1,
    "trial_type": "single-stim",
    "trial_index": 49,
    "time_elapsed": 540274,
    "internal_node_id": "0.0-4.2-0.2"
  },
  "50": {
    "rt": -1,
    "stimulus": "<center> Who was the first host of the comedy show Saturday Night Live?</center>",
    "key_press": -1,
    "trial_type": "single-stim",
    "trial_index": 50,
    "time_elapsed": 546287,
    "internal_node_id": "0.0-4.3-0.3"
  },
  "51": {
    "rt": -1,
    "stimulus": "<center> What type of political campaign is characterized by many stops in small towns?</center>",
    "key_press": -1,
    "trial_type": "single-stim",
    "trial_index": 51,
    "time_elapsed": 552298,
    "internal_node_id": "0.0-4.4-0.4"
  },
  "52": {
    "rt": 4799,
    "stimulus": "<center> What animal can shed up to 30,000 teeth in its lifetime?</center>",
    "key_press": 65,
    "trial_type": "single-stim",
    "trial_index": 52,
    "time_elapsed": 558310,
    "internal_node_id": "0.0-4.5-0.5"
  },
  "53": {
    "rt": -1,
    "stimulus": "<center> Answer is </center>",
    "key_press": -1,
    "trial_type": "single-stim",
    "trial_index": 53,
    "time_elapsed": 569317,
    "internal_node_id": "0.0-4.5-1.5-0.5"
  },
  "54": {
    "rt": -1,
    "stimulus": "<center> What invention should make Ts'ai Lun, a 2nd century inventor, a household name?</center>",
    "key_press": -1,
    "trial_type": "single-stim",
    "trial_index": 54,
    "time_elapsed": 575329,
    "internal_node_id": "0.0-4.6-0.6"
  },
  "55": {
    "rt": -1,
    "stimulus": "<center> What is the museum-surrounded space in Washington DC called?</center>",
    "key_press": -1,
    "trial_type": "single-stim",
    "trial_index": 55,
    "time_elapsed": 581343,
    "internal_node_id": "0.0-4.7-0.7"
  },
  "56": {
    "rt": 1708,
    "stimulus": "<center> What is the only type of animal besides a human that can get a sunburn?</center>",
    "key_press": 65,
    "trial_type": "single-stim",
    "trial_index": 56,
    "time_elapsed": 587356,
    "internal_node_id": "0.0-4.8-0.8"
  },
  "57": {
    "rt": -1,
    "stimulus": "<center> Answer is </center>",
    "key_press": -1,
    "trial_type": "single-stim",
    "trial_index": 57,
    "time_elapsed": 598366,
    "internal_node_id": "0.0-4.8-1.8-0.8"
  },
  "58": {
    "rt": 2878,
    "stimulus": "<center> What breed of dog is the only animal whose evidence is admissible in American courts?</center>",
    "key_press": 65,
    "trial_type": "single-stim",
    "trial_index": 58,
    "time_elapsed": 604375,
    "internal_node_id": "0.0-4.9-0.9"
  },
  "59": {
    "rt": -1,
    "stimulus": "<center> Answer is </center>",
    "key_press": -1,
    "trial_type": "single-stim",
    "trial_index": 59,
    "time_elapsed": 615378,
    "internal_node_id": "0.0-4.9-1.9-0.9"
  },
  "60": {
    "rt": -1,
    "stimulus": "<center> What city is referred to as 'Pittsburgh of the South'?</center>",
    "key_press": -1,
    "trial_type": "single-stim",
    "trial_index": 60,
    "time_elapsed": 621391,
    "internal_node_id": "0.0-4.10-0.10"
  },
  "61": {
    "rt": -1,
    "stimulus": "<center> What book is the most shoplifted book in the world?</center>",
    "key_press": -1,
    "trial_type": "single-stim",
    "trial_index": 61,
    "time_elapsed": 627404,
    "internal_node_id": "0.0-4.11-0.11"
  },
  "62": {
    "rt": -1,
    "stimulus": "<center> How long were Jerry Seinfeld and his pals sentenced in the series finale?</center>",
    "key_press": -1,
    "trial_type": "single-stim",
    "trial_index": 62,
    "time_elapsed": 633416,
    "internal_node_id": "0.0-4.12-0.12"
  },
  "63": {
    "rt": -1,
    "stimulus": "<center> What city was Groundhog Day, starring Bill Murray, filmed in?</center>",
    "key_press": -1,
    "trial_type": "single-stim",
    "trial_index": 63,
    "time_elapsed": 639427,
    "internal_node_id": "0.0-4.13-0.13"
  },
  "64": {
    "rt": -1,
    "stimulus": "<center> What rock and roll band performs -I want to Rock and Roll All Night?</center>",
    "key_press": -1,
    "trial_type": "single-stim",
    "trial_index": 64,
    "time_elapsed": 645440,
    "internal_node_id": "0.0-4.14-0.14"
  },
  "65": {
    "rt": 2957,
    "stimulus": "<center> What animal's excrements are consumed as luxury food?</center>",
    "key_press": 65,
    "trial_type": "single-stim",
    "trial_index": 65,
    "time_elapsed": 651453,
    "internal_node_id": "0.0-4.15-0.15"
  },
  "66": {
    "rt": -1,
    "stimulus": "<center> Answer is </center>",
    "key_press": -1,
    "trial_type": "single-stim",
    "trial_index": 66,
    "time_elapsed": 662460,
    "internal_node_id": "0.0-4.15-1.15-0.15"
  },
  "67": {
    "rt": 3042,
    "stimulus": "<center> What unfortunate handicap did Thomas Edison suffer from?</center>",
    "key_press": 65,
    "trial_type": "single-stim",
    "trial_index": 67,
    "time_elapsed": 668472,
    "internal_node_id": "0.0-4.16-0.16"
  },
  "68": {
    "rt": -1,
    "stimulus": "<center> Answer is </center>",
    "key_press": -1,
    "trial_type": "single-stim",
    "trial_index": 68,
    "time_elapsed": 679480,
    "internal_node_id": "0.0-4.16-1.16-0.16"
  },
  "69": {
    "rt": 4100,
    "stimulus": "<center> Which school has the most students over age 25 according to US News?</center>",
    "key_press": 65,
    "trial_type": "single-stim",
    "trial_index": 69,
    "time_elapsed": 685493,
    "internal_node_id": "0.0-4.17-0.17"
  },
  "70": {
    "rt": -1,
    "stimulus": "<center> Answer is </center>",
    "key_press": -1,
    "trial_type": "single-stim",
    "trial_index": 70,
    "time_elapsed": 696506,
    "internal_node_id": "0.0-4.17-1.17-0.17"
  },
  "71": {
    "rt": 3168,
    "stimulus": "<center> What snack food is an ingredient in the explosive dynamite?</center>",
    "key_press": 65,
    "trial_type": "single-stim",
    "trial_index": 71,
    "time_elapsed": 702515,
    "internal_node_id": "0.0-4.18-0.18"
  },
  "72": {
    "rt": -1,
    "stimulus": "<center> Answer is </center>",
    "key_press": -1,
    "trial_type": "single-stim",
    "trial_index": 72,
    "time_elapsed": 713523,
    "internal_node_id": "0.0-4.18-1.18-0.18"
  },
  "73": {
    "rt": -1,
    "stimulus": "<center> From what city in the United States did Coca-Cola originate?</center>",
    "key_press": -1,
    "trial_type": "single-stim",
    "trial_index": 73,
    "time_elapsed": 719537,
    "internal_node_id": "0.0-4.19-0.19"
  },
  "74": {
    "view_history": "[{\"page_index\":0,\"viewing_time\":2059}]",
    "rt": 2059,
    "trial_type": "instructions",
    "trial_index": 74,
    "time_elapsed": 722599,
    "internal_node_id": "0.0-5.0"
  },
  "75": {
    "rt": 35489,
    "responses": "{\"Q0\":\"Bats\",\"Q1\":\"\",\"Q2\":\"Pig\",\"Q3\":\"Shark\",\"Q4\":\"\",\"Q5\":\"Deafness\",\"Q6\":\"\",\"Q7\":\"\",\"Q8\":\"University of Phoenix\",\"Q9\":\"\"}",
    "trial_type": "survey-text-2",
    "trial_index": 75,
    "time_elapsed": 759108,
    "internal_node_id": "0.0-6.0",
    "date": "Thu, 02 Dec 2021 04:49:12 GMT",
    "completed": true,
    "condition": 1
  },
  "_id": {
    "$oid": "61a8504848acb36eb8755fc8"
  },
  "filename": "curiosity1638420552431.json",
  "__v": 0
},{
  "0": {
    "rt": 10645,
    "responses": "{\"Q0\":\"5\"}",
    "trial_type": "survey-text",
    "trial_index": 0,
    "time_elapsed": 10650,
    "internal_node_id": "0.0-0.0"
  },
  "1": {
    "view_history": "[{\"page_index\":0,\"viewing_time\":1453},{\"page_index\":1,\"viewing_time\":1624}]",
    "rt": 3078,
    "index_shuffled": [
      19,
      15,
      7,
      9,
      8,
      14,
      12,
      13,
      3,
      16,
      5,
      0,
      18,
      10,
      4,
      6,
      11,
      1,
      17,
      2
    ],
    "trial_type": "instructions",
    "trial_index": 1,
    "time_elapsed": 14729,
    "internal_node_id": "0.0-1.0"
  },
  "2": {
    "rt": -1,
    "stimulus": "<center> What animal's excrements are consumed as luxury food?</center>",
    "key_press": -1,
    "trial_type": "single-stim",
    "trial_index": 2,
    "time_elapsed": 21731,
    "internal_node_id": "0.0-2.0-0.0"
  },
  "3": {
    "rt": 5337,
    "responses": "{\"Q0\":\"4\",\"Q1\":\"0\"}",
    "trial_type": "survey-likert",
    "trial_index": 3,
    "time_elapsed": 28074,
    "internal_node_id": "0.0-2.0-1.0"
  },
  "4": {
    "rt": -1,
    "stimulus": "<center> What is the only country in the world where women dominate the government?</center>",
    "key_press": -1,
    "trial_type": "single-stim",
    "trial_index": 4,
    "time_elapsed": 35081,
    "internal_node_id": "0.0-2.1-0.1"
  },
  "5": {
    "rt": 2516,
    "responses": "{\"Q0\":\"3\",\"Q1\":\"0\"}",
    "trial_type": "survey-likert",
    "trial_index": 5,
    "time_elapsed": 38600,
    "internal_node_id": "0.0-2.1-1.1"
  },
  "6": {
    "rt": -1,
    "stimulus": "<center> Which school has the most students over age 25 according to US News?</center>",
    "key_press": -1,
    "trial_type": "single-stim",
    "trial_index": 6,
    "time_elapsed": 45607,
    "internal_node_id": "0.0-2.2-0.2"
  },
  "7": {
    "rt": 2019,
    "responses": "{\"Q0\":\"3\",\"Q1\":\"0\"}",
    "trial_type": "survey-likert",
    "trial_index": 7,
    "time_elapsed": 48632,
    "internal_node_id": "0.0-2.2-1.2"
  },
  "8": {
    "rt": -1,
    "stimulus": "<center> What is the most sober school according to The Princeton Review?</center>",
    "key_press": -1,
    "trial_type": "single-stim",
    "trial_index": 8,
    "time_elapsed": 55634,
    "internal_node_id": "0.0-2.3-0.3"
  },
  "9": {
    "rt": 4274,
    "responses": "{\"Q0\":\"3\",\"Q1\":\"0\"}",
    "trial_type": "survey-likert",
    "trial_index": 9,
    "time_elapsed": 60910,
    "internal_node_id": "0.0-2.3-1.3"
  },
  "10": {
    "rt": -1,
    "stimulus": "<center> What snack food is an ingredient in the explosive dynamite?</center>",
    "key_press": -1,
    "trial_type": "single-stim",
    "trial_index": 10,
    "time_elapsed": 67912,
    "internal_node_id": "0.0-2.4-0.4"
  },
  "11": {
    "rt": 2741,
    "responses": "{\"Q0\":\"4\",\"Q1\":\"0\"}",
    "trial_type": "survey-likert",
    "trial_index": 11,
    "time_elapsed": 71656,
    "internal_node_id": "0.0-2.4-1.4"
  },
  "12": {
    "rt": -1,
    "stimulus": "<center> Who was the first host of the comedy show Saturday Night Live?</center>",
    "key_press": -1,
    "trial_type": "single-stim",
    "trial_index": 12,
    "time_elapsed": 78659,
    "internal_node_id": "0.0-2.5-0.5"
  },
  "13": {
    "rt": 7839,
    "responses": "{\"Q0\":\"3\",\"Q1\":\"0\"}",
    "trial_type": "survey-likert",
    "trial_index": 13,
    "time_elapsed": 87503,
    "internal_node_id": "0.0-2.5-1.5"
  },
  "14": {
    "rt": -1,
    "stimulus": "<center> What breed of dog is the only animal whose evidence is admissible in American courts?</center>",
    "key_press": -1,
    "trial_type": "single-stim",
    "trial_index": 14,
    "time_elapsed": 94507,
    "internal_node_id": "0.0-2.6-0.6"
  },
  "15": {
    "rt": 7601,
    "responses": "{\"Q0\":\"1\",\"Q1\":\"0\"}",
    "trial_type": "survey-likert",
    "trial_index": 15,
    "time_elapsed": 103110,
    "internal_node_id": "0.0-2.6-1.6"
  },
  "16": {
    "rt": -1,
    "stimulus": "<center> What animal can shed up to 30,000 teeth in its lifetime?</center>",
    "key_press": -1,
    "trial_type": "single-stim",
    "trial_index": 16,
    "time_elapsed": 110112,
    "internal_node_id": "0.0-2.7-0.7"
  },
  "17": {
    "rt": 6056,
    "responses": "{\"Q0\":\"4\",\"Q1\":\"0\"}",
    "trial_type": "survey-likert",
    "trial_index": 17,
    "time_elapsed": 117174,
    "internal_node_id": "0.0-2.7-1.7"
  },
  "18": {
    "rt": -1,
    "stimulus": "<center> What book is the most shoplifted book in the world?</center>",
    "key_press": -1,
    "trial_type": "single-stim",
    "trial_index": 18,
    "time_elapsed": 124181,
    "internal_node_id": "0.0-2.8-0.8"
  },
  "19": {
    "rt": 3694,
    "responses": "{\"Q0\":\"4\",\"Q1\":\"0\"}",
    "trial_type": "survey-likert",
    "trial_index": 19,
    "time_elapsed": 128879,
    "internal_node_id": "0.0-2.8-1.8"
  },
  "20": {
    "rt": -1,
    "stimulus": "<center> What type of political campaign is characterized by many stops in small towns?</center>",
    "key_press": -1,
    "trial_type": "single-stim",
    "trial_index": 20,
    "time_elapsed": 135882,
    "internal_node_id": "0.0-2.9-0.9"
  },
  "21": {
    "rt": 5034,
    "responses": "{\"Q0\":\"2\",\"Q1\":\"0\"}",
    "trial_type": "survey-likert",
    "trial_index": 21,
    "time_elapsed": 141920,
    "internal_node_id": "0.0-2.9-1.9"
  },
  "22": {
    "rt": -1,
    "stimulus": "<center> How long were Jerry Seinfeld and his pals sentenced in the series finale?</center>",
    "key_press": -1,
    "trial_type": "single-stim",
    "trial_index": 22,
    "time_elapsed": 148928,
    "internal_node_id": "0.0-2.10-0.10"
  },
  "23": {
    "rt": 4019,
    "responses": "{\"Q0\":\"0\",\"Q1\":\"0\"}",
    "trial_type": "survey-likert",
    "trial_index": 23,
    "time_elapsed": 153951,
    "internal_node_id": "0.0-2.10-1.10"
  },
  "24": {
    "rt": -1,
    "stimulus": "<center> What rock and roll band performs -I want to Rock and Roll All Night?</center>",
    "key_press": -1,
    "trial_type": "single-stim",
    "trial_index": 24,
    "time_elapsed": 160958,
    "internal_node_id": "0.0-2.11-0.11"
  },
  "25": {
    "rt": 2078,
    "responses": "{\"Q0\":\"0\",\"Q1\":\"0\"}",
    "trial_type": "survey-likert",
    "trial_index": 25,
    "time_elapsed": 164039,
    "internal_node_id": "0.0-2.11-1.11"
  },
  "26": {
    "rt": -1,
    "stimulus": "<center> From what city in the United States did Coca-Cola originate?</center>",
    "key_press": -1,
    "trial_type": "single-stim",
    "trial_index": 26,
    "time_elapsed": 171045,
    "internal_node_id": "0.0-2.12-0.12"
  },
  "27": {
    "rt": 5546,
    "responses": "{\"Q0\":\"4\",\"Q1\":\"9\"}",
    "trial_type": "survey-likert",
    "trial_index": 27,
    "time_elapsed": 177599,
    "internal_node_id": "0.0-2.12-1.12"
  },
  "28": {
    "rt": -1,
    "stimulus": "<center> What city is referred to as 'Pittsburgh of the South'?</center>",
    "key_press": -1,
    "trial_type": "single-stim",
    "trial_index": 28,
    "time_elapsed": 184602,
    "internal_node_id": "0.0-2.13-0.13"
  },
  "29": {
    "rt": 5071,
    "responses": "{\"Q0\":\"3\",\"Q1\":\"0\"}",
    "trial_type": "survey-likert",
    "trial_index": 29,
    "time_elapsed": 190677,
    "internal_node_id": "0.0-2.13-1.13"
  },
  "30": {
    "rt": -1,
    "stimulus": "<center> What is the museum-surrounded space in Washington DC called?</center>",
    "key_press": -1,
    "trial_type": "single-stim",
    "trial_index": 30,
    "time_elapsed": 197678,
    "internal_node_id": "0.0-2.14-0.14"
  },
  "31": {
    "rt": 4670,
    "responses": "{\"Q0\":\"3\",\"Q1\":\"0\"}",
    "trial_type": "survey-likert",
    "trial_index": 31,
    "time_elapsed": 203350,
    "internal_node_id": "0.0-2.14-1.14"
  },
  "32": {
    "rt": -1,
    "stimulus": "<center> What is the only type of animal besides a human that can get a sunburn?</center>",
    "key_press": -1,
    "trial_type": "single-stim",
    "trial_index": 32,
    "time_elapsed": 210358,
    "internal_node_id": "0.0-2.15-0.15"
  },
  "33": {
    "rt": 10054,
    "responses": "{\"Q0\":\"5\",\"Q1\":\"0\"}",
    "trial_type": "survey-likert",
    "trial_index": 33,
    "time_elapsed": 221414,
    "internal_node_id": "0.0-2.15-1.15"
  },
  "34": {
    "rt": 4548,
    "stimulus": "<center> What invention should make Ts'ai Lun, a 2nd century inventor, a household name?</center>",
    "key_press": 91,
    "trial_type": "single-stim",
    "trial_index": 34,
    "time_elapsed": 228420,
    "internal_node_id": "0.0-2.16-0.16"
  },
  "35": {
    "rt": 18010,
    "responses": "{\"Q0\":\"0\",\"Q1\":\"0\"}",
    "trial_type": "survey-likert",
    "trial_index": 35,
    "time_elapsed": 247437,
    "internal_node_id": "0.0-2.16-1.16"
  },
  "36": {
    "rt": 2301,
    "stimulus": "<center> What unfortunate handicap did Thomas Edison suffer from?</center>",
    "key_press": 91,
    "trial_type": "single-stim",
    "trial_index": 36,
    "time_elapsed": 254442,
    "internal_node_id": "0.0-2.17-0.17"
  },
  "37": {
    "rt": 2346,
    "responses": "{\"Q0\":\"0\",\"Q1\":\"0\"}",
    "trial_type": "survey-likert",
    "trial_index": 37,
    "time_elapsed": 257796,
    "internal_node_id": "0.0-2.17-1.17"
  },
  "38": {
    "rt": -1,
    "stimulus": "<center> What instrument was invented to sound like a human singing?</center>",
    "key_press": -1,
    "trial_type": "single-stim",
    "trial_index": 38,
    "time_elapsed": 264802,
    "internal_node_id": "0.0-2.18-0.18"
  },
  "39": {
    "rt": 2823,
    "responses": "{\"Q0\":\"5\",\"Q1\":\"0\"}",
    "trial_type": "survey-likert",
    "trial_index": 39,
    "time_elapsed": 268629,
    "internal_node_id": "0.0-2.18-1.18"
  },
  "40": {
    "rt": -1,
    "stimulus": "<center> What city was Groundhog Day, starring Bill Murray, filmed in?</center>",
    "key_press": -1,
    "trial_type": "single-stim",
    "trial_index": 40,
    "time_elapsed": 275635,
    "internal_node_id": "0.0-2.19-0.19"
  },
  "41": {
    "rt": 2284,
    "responses": "{\"Q0\":\"0\",\"Q1\":\"0\"}",
    "trial_type": "survey-likert",
    "trial_index": 41,
    "time_elapsed": 278926,
    "internal_node_id": "0.0-2.19-1.19"
  },
  "42": {
    "view_history": "[{\"page_index\":0,\"viewing_time\":35084},{\"page_index\":1,\"viewing_time\":1064}]",
    "rt": 36148,
    "trial_type": "instructions",
    "trial_index": 42,
    "time_elapsed": 316075,
    "internal_node_id": "0.0-3.0-0.0"
  },
  "43": {
    "rt": 2430,
    "responses": "{\"Q0\":[\"Questions will appear RANDOMLY in the bonus round\"]}",
    "checked": "[1]",
    "checked1": "1",
    "trial_type": "survey-multi-choice",
    "trial_index": 43,
    "time_elapsed": 319515,
    "internal_node_id": "0.0-3.0-1.0"
  },
  "44": {
    "view_history": "[{\"page_index\":0,\"viewing_time\":38775},{\"page_index\":1,\"viewing_time\":3001}]",
    "rt": 41776,
    "trial_type": "instructions",
    "trial_index": 44,
    "time_elapsed": 364955,
    "internal_node_id": "0.0-3.1-0.1"
  },
  "45": {
    "rt": 2198,
    "responses": "{\"Q0\":[\"Questions in the bonus round will appear based on your CORRECTNESS ratings\"]}",
    "checked": "[3]",
    "checked1": "3",
    "trial_type": "survey-multi-choice",
    "trial_index": 45,
    "time_elapsed": 368157,
    "internal_node_id": "0.0-3.1-1.1"
  },
  "46": {
    "rt": 2992,
    "stimulus": "<center> What animal's excrements are consumed as luxury food?</center>",
    "key_press": 65,
    "trial_type": "single-stim",
    "trial_index": 46,
    "time_elapsed": 374162,
    "internal_node_id": "0.0-4.0-0.0"
  },
  "47": {
    "rt": 2386,
    "stimulus": "<center> Answer is </center>",
    "key_press": 18,
    "trial_type": "single-stim",
    "trial_index": 47,
    "time_elapsed": 385167,
    "internal_node_id": "0.0-4.0-1.0-0.0"
  },
  "48": {
    "rt": 1823,
    "stimulus": "<center> What is the only country in the world where women dominate the government?</center>",
    "key_press": 65,
    "trial_type": "single-stim",
    "trial_index": 48,
    "time_elapsed": 391172,
    "internal_node_id": "0.0-4.1-0.1"
  },
  "49": {
    "rt": 1781,
    "stimulus": "<center> Answer is </center>",
    "key_press": 18,
    "trial_type": "single-stim",
    "trial_index": 49,
    "time_elapsed": 402178,
    "internal_node_id": "0.0-4.1-1.1-0.1"
  },
  "50": {
    "rt": 3733,
    "stimulus": "<center> Which school has the most students over age 25 according to US News?</center>",
    "key_press": 65,
    "trial_type": "single-stim",
    "trial_index": 50,
    "time_elapsed": 408183,
    "internal_node_id": "0.0-4.2-0.2"
  },
  "51": {
    "rt": 1853,
    "stimulus": "<center> Answer is </center>",
    "key_press": 18,
    "trial_type": "single-stim",
    "trial_index": 51,
    "time_elapsed": 419187,
    "internal_node_id": "0.0-4.2-1.2-0.2"
  },
  "52": {
    "rt": 3804,
    "stimulus": "<center> What is the most sober school according to The Princeton Review?</center>",
    "key_press": 65,
    "trial_type": "single-stim",
    "trial_index": 52,
    "time_elapsed": 425189,
    "internal_node_id": "0.0-4.3-0.3"
  },
  "53": {
    "rt": 5203,
    "stimulus": "<center> Answer is </center>",
    "key_press": 91,
    "trial_type": "single-stim",
    "trial_index": 53,
    "time_elapsed": 436196,
    "internal_node_id": "0.0-4.3-1.3-0.3"
  },
  "54": {
    "rt": -1,
    "stimulus": "<center> What snack food is an ingredient in the explosive dynamite?</center>",
    "key_press": -1,
    "trial_type": "single-stim",
    "trial_index": 54,
    "time_elapsed": 442205,
    "internal_node_id": "0.0-4.4-0.4"
  },
  "55": {
    "rt": -1,
    "stimulus": "<center> Who was the first host of the comedy show Saturday Night Live?</center>",
    "key_press": -1,
    "trial_type": "single-stim",
    "trial_index": 55,
    "time_elapsed": 448211,
    "internal_node_id": "0.0-4.5-0.5"
  },
  "56": {
    "rt": 2966,
    "stimulus": "<center> What breed of dog is the only animal whose evidence is admissible in American courts?</center>",
    "key_press": 91,
    "trial_type": "single-stim",
    "trial_index": 56,
    "time_elapsed": 454221,
    "internal_node_id": "0.0-4.6-0.6"
  },
  "57": {
    "rt": 1392,
    "stimulus": "<center> What animal can shed up to 30,000 teeth in its lifetime?</center>",
    "key_press": 65,
    "trial_type": "single-stim",
    "trial_index": 57,
    "time_elapsed": 460228,
    "internal_node_id": "0.0-4.7-0.7"
  },
  "58": {
    "rt": 1842,
    "stimulus": "<center> Answer is </center>",
    "key_press": 91,
    "trial_type": "single-stim",
    "trial_index": 58,
    "time_elapsed": 471235,
    "internal_node_id": "0.0-4.7-1.7-0.7"
  },
  "59": {
    "rt": -1,
    "stimulus": "<center> What book is the most shoplifted book in the world?</center>",
    "key_press": -1,
    "trial_type": "single-stim",
    "trial_index": 59,
    "time_elapsed": 477243,
    "internal_node_id": "0.0-4.8-0.8"
  },
  "60": {
    "rt": 85,
    "stimulus": "<center> What type of political campaign is characterized by many stops in small towns?</center>",
    "key_press": 91,
    "trial_type": "single-stim",
    "trial_index": 60,
    "time_elapsed": 483250,
    "internal_node_id": "0.0-4.9-0.9"
  },
  "61": {
    "rt": -1,
    "stimulus": "<center> How long were Jerry Seinfeld and his pals sentenced in the series finale?</center>",
    "key_press": -1,
    "trial_type": "single-stim",
    "trial_index": 61,
    "time_elapsed": 489254,
    "internal_node_id": "0.0-4.10-0.10"
  },
  "62": {
    "rt": 1948,
    "stimulus": "<center> What rock and roll band performs -I want to Rock and Roll All Night?</center>",
    "key_press": 18,
    "trial_type": "single-stim",
    "trial_index": 62,
    "time_elapsed": 495265,
    "internal_node_id": "0.0-4.11-0.11"
  },
  "63": {
    "rt": 1837,
    "stimulus": "<center> From what city in the United States did Coca-Cola originate?</center>",
    "key_press": 65,
    "trial_type": "single-stim",
    "trial_index": 63,
    "time_elapsed": 501268,
    "internal_node_id": "0.0-4.12-0.12"
  },
  "64": {
    "rt": 3459,
    "stimulus": "<center> Answer is </center>",
    "key_press": 18,
    "trial_type": "single-stim",
    "trial_index": 64,
    "time_elapsed": 512276,
    "internal_node_id": "0.0-4.12-1.12-0.12"
  },
  "65": {
    "rt": 4265,
    "stimulus": "<center> What city is referred to as 'Pittsburgh of the South'?</center>",
    "key_press": 65,
    "trial_type": "single-stim",
    "trial_index": 65,
    "time_elapsed": 518282,
    "internal_node_id": "0.0-4.13-0.13"
  },
  "66": {
    "rt": 556,
    "stimulus": "<center> Answer is </center>",
    "key_press": 18,
    "trial_type": "single-stim",
    "trial_index": 66,
    "time_elapsed": 529285,
    "internal_node_id": "0.0-4.13-1.13-0.13"
  },
  "67": {
    "rt": 1813,
    "stimulus": "<center> What is the museum-surrounded space in Washington DC called?</center>",
    "key_press": 65,
    "trial_type": "single-stim",
    "trial_index": 67,
    "time_elapsed": 535293,
    "internal_node_id": "0.0-4.14-0.14"
  },
  "68": {
    "rt": 1498,
    "stimulus": "<center> Answer is </center>",
    "key_press": 91,
    "trial_type": "single-stim",
    "trial_index": 68,
    "time_elapsed": 546300,
    "internal_node_id": "0.0-4.14-1.14-0.14"
  },
  "69": {
    "rt": 3182,
    "stimulus": "<center> What is the only type of animal besides a human that can get a sunburn?</center>",
    "key_press": 65,
    "trial_type": "single-stim",
    "trial_index": 69,
    "time_elapsed": 552302,
    "internal_node_id": "0.0-4.15-0.15"
  },
  "70": {
    "rt": -1,
    "stimulus": "<center> Answer is </center>",
    "key_press": -1,
    "trial_type": "single-stim",
    "trial_index": 70,
    "time_elapsed": 563305,
    "internal_node_id": "0.0-4.15-1.15-0.15"
  },
  "71": {
    "rt": 4243,
    "stimulus": "<center> What invention should make Ts'ai Lun, a 2nd century inventor, a household name?</center>",
    "key_press": 18,
    "trial_type": "single-stim",
    "trial_index": 71,
    "time_elapsed": 569310,
    "internal_node_id": "0.0-4.16-0.16"
  },
  "72": {
    "rt": 4674,
    "stimulus": "<center> What unfortunate handicap did Thomas Edison suffer from?</center>",
    "key_press": 18,
    "trial_type": "single-stim",
    "trial_index": 72,
    "time_elapsed": 575313,
    "internal_node_id": "0.0-4.17-0.17"
  },
  "73": {
    "rt": 1888,
    "stimulus": "<center> What instrument was invented to sound like a human singing?</center>",
    "key_press": 65,
    "trial_type": "single-stim",
    "trial_index": 73,
    "time_elapsed": 581319,
    "internal_node_id": "0.0-4.18-0.18"
  },
  "74": {
    "rt": -1,
    "stimulus": "<center> Answer is </center>",
    "key_press": -1,
    "trial_type": "single-stim",
    "trial_index": 74,
    "time_elapsed": 592325,
    "internal_node_id": "0.0-4.18-1.18-0.18"
  },
  "75": {
    "rt": 3617,
    "stimulus": "<center> What city was Groundhog Day, starring Bill Murray, filmed in?</center>",
    "key_press": 18,
    "trial_type": "single-stim",
    "trial_index": 75,
    "time_elapsed": 598332,
    "internal_node_id": "0.0-4.19-0.19"
  },
  "76": {
